subj,run,runstart,trial,Cue1_Onset,Cue2_Onset,response,Reward,Effort,Order,RT,Trigger,ITI_Onset,ITI_Offset,CounterBalance,Site,ModelledDiff,BinaryDiff,TaskDiff,ExpectedChoice,Error,Visit1_ModelDiff,Visit1_BinaryDiff,filter_$,Easy_NonEff,Easy_Eff,IDP,IDP_binary,SVC,SVH
902,1,139443.27,1,0.1,2.13,1,9.33,0.2,2,0.67,1,3.36,5.36,1,2,0.02,0,-1,1,0,0,0,0,#NULL!,1,8.37,0,9.2536,9.2536
902,1,139443.27,2,5.41,7.43,1,10.4,0.5,1,0.56,1,8.53,10.53,1,2,0.03,0,-1,1,0,0,0,0,#NULL!,1,8.9,0,9.4245,9.4245
902,1,139443.27,4,15.77,17.79,0,-2,1,2,0.38,1,18.69,20.69,1,2,0,0,-1,0,0,0,0,0,0,#NULL!,12,0,4.187,4.187
902,1,139443.27,5,26.14,28.16,0,-0.03,0.8,2,0.59,1,29.27,31.27,1,2,0.05,0,0,0,0,0,1,0,#NULL!,#NULL!,7.06,0,1,-8.7
902,1,139443.27,7,36.64,38.66,1,9.97,0.2,1,0.71,1,39.91,41.91,1,2,0.02,0,-1,1,0,0,0,0,#NULL!,1,9.01,0,1,-3.633
902,1,139443.27,8,45.25,47.26,0,9.62,0.5,2,0.77,1,48.56,50.56,1,2,0.05,0,-1,1,1,0,0,0,#NULL!,0,8.12,0,1,0.30454
902,1,139443.27,10,55.91,57.93,1,7.82,0.2,1,0.64,1,59.1,61.1,1,2,0.05,0,1,1,0,0,0,0,#NULL!,#NULL!,6.86,0,9.8936,9.8936
902,1,139443.27,11,64.72,66.73,0,-0.2,1,2,0.59,1,67.85,69.85,1,2,0.01,0,0,0,0,0,0,0,#NULL!,#NULL!,10.2,0,1,8.6445
902,1,139443.27,12,69.86,71.88,0,-0.8,0.8,2,0.57,1,73,75,1,2,0.04,0,0,0,0,0,0,0,#NULL!,#NULL!,7.83,0,4.547,4.547
902,1,139443.27,15,89.02,91.04,1,9.25,0.2,2,0.63,1,92.21,94.21,1,2,0.02,0,-1,1,0,0,0,0,#NULL!,1,8.29,0,7.7436,7.7436
902,1,139443.27,16,94.22,96.24,1,10.24,0.2,1,0.57,1,97.36,99.36,1,2,0.01,0,-1,1,0,0,0,0,#NULL!,1,9.28,0,1,-6.9
902,1,139443.27,18,110.66,112.67,1,7.98,0.5,1,0.7,1,113.91,115.91,1,2,0.11,1,1,1,0,0,0,0,#NULL!,#NULL!,6.48,0,1,-4.403
902,1,139443.27,19,115.92,117.94,1,7.25,0.2,1,0.59,1,119.06,121.06,1,2,0.07,0,1,1,0,0,0,0,#NULL!,#NULL!,6.29,0,1,0.52363
902,1,139443.27,20,121.07,123.09,0,-1.35,0.8,1,0.56,1,124.17,126.17,1,2,0.03,0,-1,0,0,0,0,0,0,#NULL!,8.38,0,1,0.29454
902,1,139443.27,21,130.58,132.6,0,-0.85,1,2,0.45,1,133.58,135.58,1,2,0,0,-1,0,0,0,0,0,0,#NULL!,10.85,0,9.1736,9.1736
902,1,139443.27,26,159.32,161.34,1,9.89,0.2,2,0.51,1,162.39,164.39,1,2,0.02,0,-1,1,0,0,0,0,#NULL!,1,8.93,0,10.1636,10.164
902,1,139443.27,28,172.41,174.43,1,7.19,0.2,1,0.61,1,175.58,177.58,1,2,0.07,1,1,1,0,0,0,0,#NULL!,#NULL!,6.23,0,1,1.43
902,1,139443.27,29,177.59,179.61,0,-0.22,0.8,2,0.71,1,180.84,182.84,1,2,0.05,0,0,0,0,0,0,0,#NULL!,#NULL!,7.25,0,7.0045,7.0045
902,1,139443.27,30,182.86,184.88,0,-0.44,1,1,0.42,1,185.83,187.83,1,2,0.01,0,0,0,0,0,0,0,#NULL!,#NULL!,10.44,0,7.1736,7.1736
902,1,139443.27,32,195.88,197.89,1,9.8,0.5,1,0.54,1,198.98,200.98,1,2,0.04,0,-1,1,0,0,0,0,#NULL!,1,8.3,0,1,-4.953
902,1,139443.27,33,200.99,203.01,1,10.1,0.5,1,0.56,1,204.11,206.11,1,2,0.04,0,-1,1,0,0,0,0,#NULL!,1,8.6,0,1,-7.55
902,1,139443.27,35,211.33,213.34,1,8.15,0.2,1,0.57,1,214.44,216.44,1,2,0.04,0,1,1,0,0,0,0,#NULL!,#NULL!,7.19,0,1,0.44363
902,1,139443.27,36,216.46,218.48,1,7.05,0.5,2,0.54,1,219.56,221.56,1,2,0.18,1,1,1,0,0,0,0,#NULL!,#NULL!,5.55,0,1,-0.025464
902,1,139443.27,37,227.05,229.06,0,-1.15,0.8,1,0.41,1,230.01,232.01,1,2,0.03,0,-1,0,0,0,0,0,0,#NULL!,8.18,0,1,4.05
902,1,139443.27,38,235.79,237.81,0,-1.3,1,2,0.37,1,238.72,240.72,1,2,0,0,-1,0,0,0,0,0,0,#NULL!,11.3,0,6.547,6.547
902,1,139443.27,41,251.52,253.54,1,9.05,0.5,2,0.72,1,254.79,256.79,1,2,0.06,0,-1,1,0,0,0,0,#NULL!,1,7.55,0,9.8136,9.8136
902,1,139443.27,42,256.81,258.82,1,9.97,0.2,2,0.61,1,259.97,261.97,1,2,0.02,0,-1,1,0,0,0,0,#NULL!,1,9.01,0,0.7,0.7
902,1,139443.27,43,261.99,264.01,1,8.29,0.5,2,0.56,1,265.09,267.09,1,2,0.1,1,1,1,0,0,0,0,#NULL!,#NULL!,6.79,0,7.1136,7.1136
902,1,139443.27,45,274.49,276.51,0,-1.55,1,1,0.54,1,277.59,279.59,1,2,0,0,-1,0,0,0,0,0,0,#NULL!,11.55,0,1,-3.823
902,1,139443.27,46,279.61,281.63,0,-0.52,0.8,1,0.75,1,282.91,284.91,1,2,0.04,0,0,0,0,0,0,0,#NULL!,#NULL!,7.55,0,1,-7.14
902,1,139443.27,48,290.11,292.13,1,9.78,0.5,1,0.58,1,293.24,295.24,1,2,0.04,0,-1,1,0,0,0,0,#NULL!,1,8.28,0,1.6136,1.6136
902,1,139443.27,50,304.25,306.27,1,7.34,0.5,2,0.52,1,307.32,309.32,1,2,0.16,1,1,1,0,0,0,0,#NULL!,#NULL!,5.84,0,8.8245,8.8245
902,1,139443.27,52,314.48,316.5,0,-1.46,0.8,1,0.62,1,317.65,319.65,1,2,0.02,0,-1,0,0,0,0,0,0,#NULL!,8.49,0,9.1245,9.1245
902,1,139443.27,55,336.09,338.11,0,1.46,1,1,0.45,1,339.09,341.09,1,2,0.02,0,1,0,0,0,0,0,#NULL!,#NULL!,8.54,0,6.647,6.647
902,1,139443.27,57,346.29,348.31,1,10.22,0.5,1,0.61,1,349.44,351.44,1,2,0.03,0,-1,1,0,0,0,0,#NULL!,1,8.72,0,8.0736,8.0736
902,1,139443.27,58,351.46,353.48,1,9.48,0.2,1,0.58,1,354.59,356.59,1,2,0.02,0,-1,1,0,0,0,0,#NULL!,1,8.52,0,6.0745,6.0745
902,1,139443.27,61,366.98,369,0,-1.67,0.8,1,0.38,1,369.91,371.91,1,2,0.02,0,-1,0,0,0,0,0,0,#NULL!,8.7,0,1,-4.753
902,1,139443.27,64,388.26,390.27,1,9.66,0.5,1,0.63,1,391.44,393.44,1,2,0.05,0,-1,1,0,0,0,0,#NULL!,1,8.16,0,1,-8
902,1,139443.27,65,393.45,395.47,1,9.99,0.2,1,0.48,1,396.49,398.49,1,2,0.02,0,-1,1,0,0,0,0,#NULL!,1,9.03,0,0.7745,0.77454
902,1,139443.27,68,411.02,413.04,0,-0.46,1,1,0.34,1,413.92,415.92,1,2,0.01,0,-1,0,0,0,0,0,0,#NULL!,10.46,0,1,0.81363
902,1,139443.27,69,415.94,417.95,0,0.62,0.8,1,0.34,1,418.82,420.82,1,2,0.08,1,0,0,0,0,1,0,#NULL!,#NULL!,6.41,0,8.0745,8.0745
902,1,139443.27,72,430.67,432.69,1,9.95,0.2,1,0.6,1,433.82,435.82,1,2,0.02,0,-1,1,0,0,0,0,#NULL!,1,8.99,0,9.8936,9.8936
902,1,139443.27,73,439.58,441.59,1,10.47,0.5,1,0.64,1,442.76,444.76,1,2,0.03,0,-1,1,0,0,0,0,#NULL!,1,8.97,0,7.3145,7.3145
902,1,139443.27,77,460.55,462.56,0,-1.55,0.8,2,0.61,1,463.71,465.71,1,2,0.02,0,-1,0,0,0,0,0,0,#NULL!,8.58,0,4.357,4.357
902,1,139443.27,78,471.71,473.72,0,-0.37,1,2,0.43,1,474.69,476.69,1,2,0.01,0,0,0,0,0,0,0,#NULL!,#NULL!,10.37,0,1,-8.25
902,1,139443.27,80,482.29,484.3,0,9.99,0.2,1,0.65,1,485.49,487.49,1,2,0.02,0,-1,1,1,0,0,0,#NULL!,0,9.03,0,1,-4.123
902,3,141062.06,1,0.04,2.07,0,-1.77,1,1,0.56,1,3.17,5.17,1,1,0,0,-1,0,0,0,0,0,0,#NULL!,11.77,0,0.8436,0.84363
902,3,141062.06,4,22.83,24.84,1,9.4,0.2,1,0.66,1,26.03,28.03,1,1,0,0,-1,1,0,0,0,0,#NULL!,1,7.61,0,8.8045,8.8045
902,3,141062.06,5,28.05,30.06,0,9.38,0.5,2,1.17,1,31.76,33.76,1,1,0.01,0,-1,1,1,0,0,0,#NULL!,0,8.15,0,6.557,6.557
902,3,141062.06,7,39.16,41.18,0,-2,1,1,0.54,1,42.25,44.25,1,1,0,0,-1,0,0,0,0,0,0,#NULL!,12,0,6.3645,6.3645
902,3,141062.06,11,112.15,114.17,1,9.99,0.2,2,0.71,1,115.42,117.42,1,1,0,0,-1,1,0,0,0,0,#NULL!,1,8.2,0,1,1.38
902,3,141062.06,12,120.81,122.82,1,9.61,0.5,1,0.69,1,124.06,126.06,1,1,0.01,0,-1,1,0,0,0,0,#NULL!,1,8.38,0,1,-5.063
902,3,141062.06,13,126.08,128.09,1,8.12,0.8,1,1.03,1,129.66,131.66,1,1,0.18,1,0,1,0,0,1,0,#NULL!,#NULL!,4.76,0,1,-0.98546
902,3,141062.06,15,137.04,139.06,0,-1.86,0.8,2,0.63,1,140.23,142.23,1,1,0.01,0,-1,0,0,0,0,0,0,#NULL!,5.22,0,1,-0.055464
902,3,141062.06,20,168.19,170.21,1,10.11,0.5,2,0.67,1,171.41,173.41,1,1,0,0,-1,1,0,0,0,0,#NULL!,1,8.88,0,1,-5.24
902,3,141062.06,21,177.12,179.14,1,9.75,0.2,2,0.63,1,180.31,182.31,1,1,0,0,-1,1,0,0,0,0,#NULL!,1,7.96,0,1,-0.12546
902,3,141062.06,22,182.32,184.34,1,10.15,0.5,2,0.71,1,185.59,187.59,1,1,0,0,-1,1,0,0,0,0,#NULL!,1,8.92,0,9.2445,9.2445
902,3,141062.06,23,187.61,189.62,1,9.89,0.2,1,0.66,1,190.82,192.82,1,1,0,0,-1,1,0,0,0,0,#NULL!,1,8.1,0,9.4036,9.4036
902,3,141062.06,27,210.69,212.71,0,-0.44,1,2,0.51,1,213.76,215.76,1,1,0,0,-1,0,0,0,0,0,0,#NULL!,10.44,0,1,1.22
902,3,141062.06,29,221.09,223.11,1,9.8,0.5,2,0.54,1,224.17,226.17,1,1,0.01,0,-1,1,0,0,0,0,#NULL!,1,8.57,0,4.517,4.517
902,3,141062.06,30,226.19,228.21,1,10.1,0.2,2,0.76,1,229.49,231.49,1,1,0,0,-1,1,0,0,0,0,#NULL!,1,8.31,0,1,-5.273
902,3,141062.06,31,234.06,236.07,1,10.25,0.5,1,0.71,1,237.31,239.31,1,1,0,0,-1,1,0,0,0,0,#NULL!,1,9.02,0,1,0.76363
902,3,141062.06,34,254.89,256.9,0,-1.15,0.8,2,0.77,1,258.2,260.2,1,1,0.02,0,-1,0,0,0,0,0,0,#NULL!,4.51,0,0.7645,0.76454
902,3,141062.06,35,260.22,262.24,0,-1.3,1,1,0.53,1,263.3,265.3,1,1,0,0,-1,0,0,0,0,0,0,#NULL!,11.3,0,8.6845,8.6845
902,3,141062.06,38,279.38,281.4,1,9.97,0.5,1,0.6,1,282.53,284.53,1,1,0.01,0,-1,1,0,0,0,0,#NULL!,1,8.74,0,9.9136,9.9136
902,3,141062.06,39,284.55,286.57,1,10.07,0.2,1,0.57,1,287.67,289.67,1,1,0,0,-1,1,0,0,0,0,#NULL!,1,8.28,0,3.487,3.487
902,3,141062.06,41,294.82,296.83,1,7.96,0.8,1,0.62,1,297.98,299.98,1,1,0.21,1,1,1,0,0,1,0,#NULL!,#NULL!,4.6,0,1,1.42
902,3,141062.06,42,302.1,304.12,0,-0.85,1,1,0.64,1,305.3,307.3,1,1,0,0,-1,0,0,0,0,0,0,#NULL!,10.85,0,1,-7.16
902,3,141062.06,45,320.24,322.26,1,9.78,0.2,2,0.77,1,323.56,325.56,1,1,0,0,-1,1,0,0,0,0,#NULL!,1,7.99,0,1,-2.983
902,3,141062.06,46,325.58,327.6,1,10.16,0.5,1,0.7,1,328.83,330.83,1,1,0,0,-1,1,0,0,0,0,#NULL!,1,8.93,0,1,-0.13546
902,3,141062.06,47,330.85,332.86,1,8.87,0.8,1,0.66,1,334.06,336.06,1,1,0.11,1,0,1,0,0,1,0,#NULL!,#NULL!,5.51,0,1,0.70363
902,3,141062.06,48,336.08,338.1,0,-0.46,1,1,0.35,1,338.98,340.98,1,1,0,0,-1,0,0,0,0,0,0,#NULL!,10.46,0,9.8736,9.8736
902,3,141062.06,52,360.44,362.46,1,10.25,0.2,1,0.85,1,363.84,365.84,1,1,0,0,-1,1,0,0,0,0,#NULL!,1,8.46,0,9.4945,9.4945
902,3,141062.06,53,369.58,371.6,1,9.24,0.2,2,0.8,1,372.93,374.93,1,1,0,0,-1,1,0,0,0,0,#NULL!,1,7.45,0,1,1.63
902,3,141062.06,55,380.23,382.25,1,8.08,0.8,2,0.89,1,383.67,385.67,1,1,0.19,1,1,1,0,0,1,0,#NULL!,#NULL!,4.72,0,1,3.617
902,3,141062.06,57,390.93,392.95,0,-1.67,0.8,2,0.6,1,394.08,396.08,1,1,0.01,0,-1,0,0,0,0,0,0,#NULL!,5.03,0,1,0.85
902,3,141062.06,60,410.9,412.92,1,9.66,0.5,2,0.7,1,414.15,416.15,1,1,0.01,0,-1,1,0,0,0,0,#NULL!,1,8.43,0,1,-5.153
902,3,141062.06,61,419.37,421.39,1,9.99,0.2,2,0.77,1,422.69,424.69,1,1,0,0,-1,1,0,0,0,0,#NULL!,1,8.2,0,1,-7.07
902,3,141062.06,64,437.87,439.89,0,-1.55,1,2,0.68,1,441.11,443.11,1,1,0,0,-1,0,0,0,0,0,0,#NULL!,11.55,0,1,0.064536
902,3,141062.06,67,453.33,455.34,1,9.95,0.2,1,0.53,1,456.41,458.41,1,1,0,0,-1,1,0,0,0,0,#NULL!,1,8.16,0,1,9.9136
902,3,141062.06,68,458.43,460.44,1,10.47,0.5,1,0.58,1,461.56,463.56,1,1,0,0,-1,1,0,0,0,0,#NULL!,1,9.24,0,1,-6.97
902,3,141062.06,72,479.59,481.61,0,-1.55,0.8,1,0.5,1,482.64,484.65,1,1,0.01,0,-1,0,0,0,0,0,0,#NULL!,4.91,0,1,-4.003
902,3,141062.06,73,491.63,493.64,0,-0.37,1,1,0.54,1,494.73,496.73,1,1,0,0,0,0,0,0,0,0,#NULL!,#NULL!,10.37,0,1,0.22454
902,3,141062.06,75,502.1,504.11,1,9.99,0.2,1,0.9,1,505.55,507.55,1,1,0,0,-1,1,0,0,0,0,#NULL!,1,8.2,0,1,0.72363
902,3,141062.06,76,511.25,513.26,1,9.24,0.5,1,0.73,1,514.53,516.53,1,1,0.01,0,-1,1,0,0,0,0,#NULL!,1,8.01,0,9.3945,9.3945
902,3,141062.06,79,531.09,533.11,0,-1.06,1,1,0.4,1,534.04,536.04,1,1,0,0,-1,0,0,0,0,0,0,#NULL!,11.06,0,9.1736,9.1736
904,1,638962.1,1,0.11,2.14,1,9.33,0.2,2,0.83,1,3.52,5.52,1,1,0,0,-1,1,0,0,0,0,#NULL!,1,9.33,0,6.1945,6.1945
904,1,638962.1,2,5.55,7.57,1,10.4,0.5,1,0.69,1,8.79,10.79,1,1,0,0,-1,1,0,0,0,0,#NULL!,1,9.26,0,6.3545,6.3545
904,1,638962.1,4,16.14,18.15,0,-2,1,2,0.61,1,19.28,21.28,1,1,0,1,-1,0,0,0,1,0,0,#NULL!,6.11,0,1,-8.62
904,1,638962.1,7,43.02,45.03,1,9.97,0.2,1,0.86,1,46.43,48.43,1,1,0,0,-1,1,0,0,0,0,#NULL!,1,9.97,0,1,-3.913
904,1,638962.1,8,51.73,53.75,1,9.62,0.5,2,1.05,1,55.33,57.33,1,1,0,0,-1,1,0,0,0,0,#NULL!,1,8.48,0,1,-0.23546
904,1,638962.1,9,57.35,59.37,1,8.15,0.8,2,1.21,1,61.12,63.12,1,1,0,0,1,1,0,0,0,0,#NULL!,#NULL!,4.71,0,1.0636,1.0636
904,1,638962.1,10,63.13,65.15,1,7.82,0.2,1,0.52,1,66.2,68.2,1,1,0,1,1,1,0,0,0,0,#NULL!,#NULL!,7.82,0,10.0236,10.024
904,1,638962.1,15,93.54,95.55,1,9.25,0.2,2,0.85,1,96.94,98.94,1,1,0,0,-1,1,0,0,0,0,#NULL!,1,9.25,0,8.5745,8.5745
904,1,638962.1,16,98.96,100.97,1,10.24,0.2,1,0.78,1,102.29,104.29,1,1,0,0,-1,1,0,0,0,0,#NULL!,1,10.24,0,1,4.277
904,1,638962.1,18,113.52,115.54,1,7.98,0.5,1,1.35,1,117.42,119.42,1,1,0,1,1,1,0,0,0,0,#NULL!,#NULL!,6.84,0,1,1.2
904,1,638962.1,19,119.44,121.46,1,7.25,0.2,1,0.8,1,122.79,124.79,1,1,0,1,1,1,0,0,0,0,#NULL!,#NULL!,7.25,0,1,0.52
904,1,638962.1,20,124.81,126.83,0,-1.35,0.8,1,0.41,1,127.78,129.78,1,1,0.01,1,-1,0,0,0,1,0,0,#NULL!,4.79,0,1,-8.21
904,1,638962.1,21,134.24,136.26,0,-0.85,1,2,0.86,1,137.66,139.66,1,1,0.02,1,-1,0,0,0,1,0,0,#NULL!,4.96,0,-3.843,-3.843
904,1,638962.1,24,150.7,152.71,1,10.75,1,1,0.42,1,153.66,155.66,1,1,0,0,-1,1,0,0,0,0,#NULL!,1,6.64,0,1,-0.14546
904,1,638962.1,25,159.84,161.86,1,10.15,0.8,1,0.63,1,163.03,165.03,1,1,0,0,-1,1,0,0,0,0,#NULL!,1,6.71,0,1.1236,1.1236
904,1,638962.1,26,165.04,167.06,1,9.89,0.2,2,0.66,1,168.24,170.24,1,1,0,0,-1,1,0,0,0,0,#NULL!,1,9.89,0,1.4136,1.4136
904,1,638962.1,28,177.95,179.96,1,7.19,0.2,1,1.41,1,181.91,183.91,1,1,0,1,1,1,0,0,0,0,#NULL!,#NULL!,7.19,0,9.7036,9.7036
904,1,638962.1,30,189.19,191.21,0,-0.44,1,1,0.62,1,192.36,194.36,1,1,0.05,1,0,0,0,0,1,0,#NULL!,#NULL!,4.55,0,10.0145,10.015
904,1,638962.1,32,202.65,204.66,1,9.8,0.5,1,0.82,1,206.01,208.02,1,1,0,0,-1,1,0,0,0,0,#NULL!,1,8.66,0,0.73,0.73
904,1,638962.1,33,208.03,210.05,1,10.1,0.5,1,1.15,1,211.73,213.73,1,1,0,0,-1,1,0,0,0,0,#NULL!,1,8.96,0,1,-6.75
904,1,638962.1,34,213.75,215.77,1,10.25,0.8,2,0.82,1,217.12,219.12,1,1,0,0,-1,1,0,0,0,0,#NULL!,1,6.81,0,1,-4.453
904,1,638962.1,35,219.13,221.15,1,8.15,0.2,1,1.19,1,222.87,224.87,1,1,0,0,1,1,0,0,0,0,#NULL!,#NULL!,8.15,0,1,-0.45546
904,1,638962.1,36,224.88,226.9,1,7.05,0.5,2,0.91,1,228.35,230.35,1,1,0,1,1,1,0,0,1,0,#NULL!,#NULL!,5.91,0,1,1.5736
904,1,638962.1,37,235.55,237.57,0,-1.15,0.8,1,0.7,1,238.8,240.8,1,1,0.01,1,-1,0,0,0,1,0,0,#NULL!,4.59,0,9.7536,9.7536
904,1,638962.1,38,244.95,246.96,0,-1.3,1,2,0.78,1,248.28,250.28,1,1,0.01,1,-1,0,0,0,1,0,0,#NULL!,5.41,0,9.3645,9.3645
904,1,638962.1,41,261.91,263.93,1,9.05,0.5,2,0.97,1,265.43,267.43,1,1,0,0,-1,1,0,0,0,0,#NULL!,1,7.91,0,5.077,5.077
904,1,638962.1,42,267.45,269.46,1,9.97,0.2,2,1.74,1,271.73,273.73,1,1,0,0,-1,1,0,0,0,0,#NULL!,1,9.97,0,4.367,4.367
904,1,638962.1,43,273.75,275.76,1,8.29,0.5,2,1.15,1,277.45,279.45,1,1,0,0,1,1,0,0,0,0,#NULL!,#NULL!,7.15,0,1,0.82
904,1,638962.1,44,279.46,281.48,1,7.96,0.8,2,0.87,1,282.88,284.88,1,1,0,1,1,1,0,0,0,0,#NULL!,#NULL!,4.52,0,1,-7.59
904,1,638962.1,45,288.45,290.46,0,-1.55,1,1,0.82,1,291.82,293.82,1,1,0,1,-1,0,0,0,1,0,0,#NULL!,5.66,0,1,-3.413
904,1,638962.1,48,304.43,306.45,1,9.78,0.5,1,0.64,1,307.62,309.62,1,1,0,0,-1,1,0,0,0,0,#NULL!,1,8.64,0,1,0.67454
904,1,638962.1,49,314.79,316.81,1,10.16,0.8,2,1,1,318.34,320.34,1,1,0,0,-1,1,0,0,0,0,#NULL!,1,6.72,0,1.5436,1.5436
904,1,638962.1,50,320.36,322.38,1,7.34,0.5,2,0.8,1,323.71,325.71,1,1,0,1,1,1,0,0,0,0,#NULL!,#NULL!,6.2,0,10.1836,10.184
904,1,638962.1,52,331.26,333.28,0,-1.46,0.8,1,0.32,1,334.13,336.13,1,1,0,1,-1,0,0,0,1,0,0,#NULL!,4.9,0,1,1.54
904,1,638962.1,57,364.78,366.8,1,10.22,0.5,1,0.97,1,368.3,370.3,1,1,0,0,-1,1,0,0,0,0,#NULL!,1,9.08,0,4.387,4.387
904,1,638962.1,58,370.32,372.33,1,9.48,0.2,1,0.99,1,373.85,375.85,1,1,0,0,-1,1,0,0,0,0,#NULL!,1,9.48,0,1,-7.66
904,1,638962.1,60,381.22,383.24,1,8.12,0.8,1,0.95,1,384.72,386.72,1,1,0,0,1,1,0,0,0,0,#NULL!,#NULL!,4.68,0,1,-0.34546
904,1,638962.1,61,386.74,388.75,0,-1.67,0.8,1,0.64,1,389.92,391.92,1,1,0,1,-1,0,0,0,1,0,0,#NULL!,5.11,0,1.3736,1.3736
904,1,638962.1,64,411.87,413.88,1,9.66,0.5,1,1.18,1,415.6,417.6,1,1,0,0,-1,1,0,0,0,0,#NULL!,1,8.52,0,10.4736,10.474
904,1,638962.1,65,417.61,419.63,1,9.99,0.2,1,0.76,1,420.93,422.93,1,1,0,0,-1,1,0,0,0,0,#NULL!,1,9.99,0,9.2445,9.2445
904,1,638962.1,68,436.09,438.11,0,-0.46,1,1,0.71,1,439.36,441.36,1,1,0.05,1,-1,0,0,0,1,0,0,#NULL!,4.57,0,3.727,3.727
904,1,638962.1,72,458.48,460.5,1,9.95,0.2,1,0.92,1,461.95,463.95,1,1,0,0,-1,1,0,0,0,0,#NULL!,1,9.95,0,1,3.867
904,1,638962.1,73,467.01,469.03,1,10.47,0.5,1,0.59,1,470.15,472.15,1,1,0,0,-1,1,0,0,0,0,#NULL!,1,9.33,0,1,1.25
904,1,638962.1,77,488.35,490.37,0,-1.55,0.8,2,0.69,1,491.6,493.6,1,1,0,1,-1,0,0,0,1,0,0,#NULL!,4.99,0,1,-7.92
904,1,638962.1,78,498.48,500.5,0,-0.37,1,2,0.82,1,501.85,503.85,1,1,0.06,1,0,0,0,0,1,0,#NULL!,#NULL!,4.48,0,1,-3.763
904,1,638962.1,80,510.28,512.3,1,9.99,0.2,1,0.57,1,513.4,515.4,1,1,0,0,-1,1,0,0,0,0,#NULL!,1,9.99,0,1,-2.983
904,3,640310.65,1,0.04,2.08,0,-1.77,1,1,0.41,1,3.01,5.01,1,1,0,1,-1,0,0,0,1,0,0,#NULL!,4.67,0,1.4336,1.4336
904,3,640310.65,4,19.78,21.8,1,9.4,0.2,1,0.49,1,22.82,24.82,1,1,0,0,-1,1,0,0,0,0,#NULL!,1,9.4,0,9.1445,9.1445
904,3,640310.65,5,24.83,26.85,1,9.38,0.5,2,0.89,1,28.27,30.27,1,1,0,0,-1,1,0,0,0,0,#NULL!,1,7.52,0,9.9136,9.9136
904,3,640310.65,7,35.93,37.95,0,-2,1,1,0.38,1,38.87,40.87,1,1,0,1,-1,0,0,0,1,0,0,#NULL!,4.9,0,1,1.37
904,3,640310.65,11,60.37,62.39,1,9.99,0.2,2,1.5,1,64.42,66.42,1,1,0,0,-1,1,0,0,0,0,#NULL!,1,9.99,0,4.357,4.357
904,3,640310.65,12,69.01,71.03,1,9.61,0.5,1,1,1,72.56,74.56,1,1,0,0,-1,1,0,0,0,0,#NULL!,1,7.75,0,1,-7.96
904,3,640310.65,13,74.58,76.6,1,8.12,0.8,1,1.25,1,78.38,80.38,1,1,0,0,0,1,0,0,0,0,#NULL!,#NULL!,4.76,0,1,-0.13546
904,3,640310.65,14,80.4,82.42,1,7.99,1,2,0.73,1,83.68,85.68,1,1,0,1,1,1,0,0,0,0,#NULL!,#NULL!,5.1,0,1.2536,1.2536
904,3,640310.65,15,85.7,87.72,0,-1.86,0.8,2,0.86,1,89.12,91.12,1,1,0,1,-1,0,0,0,1,0,0,#NULL!,5.22,0,9.1636,9.1636
904,3,640310.65,20,120.96,122.98,1,10.11,0.5,2,1.05,1,124.56,126.56,1,1,0,0,-1,1,0,0,0,0,#NULL!,1,8.25,0,9.1445,9.1445
904,3,640310.65,21,130.82,132.83,1,9.75,0.2,2,0.72,1,134.08,136.08,1,1,0,0,-1,1,0,0,0,0,#NULL!,1,9.75,0,3.877,3.877
904,3,640310.65,22,136.1,138.11,1,10.15,0.5,2,0.83,1,139.48,141.48,1,1,0,0,-1,1,0,0,0,0,#NULL!,1,8.29,0,1,0.52
904,3,640310.65,23,141.5,143.51,1,9.89,0.2,1,0.61,1,144.66,146.66,1,1,0,0,-1,1,0,0,0,0,#NULL!,1,9.89,0,1,-7.85
904,3,640310.65,25,152.06,154.08,1,8.19,1,2,0.83,1,155.45,157.45,1,1,0,0,1,1,0,0,0,0,#NULL!,#NULL!,5.3,0,1,-4.143
904,3,640310.65,29,175.63,177.65,1,9.8,0.5,2,0.93,1,179.11,181.11,1,1,0,0,-1,1,0,0,0,0,#NULL!,1,7.94,0,1,-0.055464
904,3,640310.65,30,181.13,183.15,1,10.1,0.2,2,0.94,1,184.61,186.61,1,1,0,0,-1,1,0,0,0,0,#NULL!,1,10.1,0,1,0.91363
904,3,640310.65,31,190.87,192.88,1,10.25,0.5,1,1.03,1,194.45,196.45,1,1,0,0,-1,1,0,0,0,0,#NULL!,1,8.39,0,1.4636,1.4636
904,3,640310.65,32,196.46,198.48,1,8.15,1,2,0.83,1,199.85,201.85,1,1,0,0,1,1,0,0,0,0,#NULL!,#NULL!,5.26,0,10.0036,10.004
904,3,640310.65,34,210.78,212.8,0,-1.15,0.8,2,0.61,1,213.95,215.95,1,1,0.01,1,-1,0,0,0,1,0,0,#NULL!,4.51,0,8.3645,8.3645
904,3,640310.65,38,236.1,238.11,1,9.97,0.5,1,0.67,1,239.31,241.31,1,1,0,0,-1,1,0,0,0,0,#NULL!,1,8.11,0,4.177,4.177
904,3,640310.65,39,241.33,243.35,1,10.07,0.2,1,0.61,1,244.5,246.5,1,1,0,0,-1,1,0,0,0,0,#NULL!,1,10.07,0,1,1.46
904,3,640310.65,40,246.51,248.53,1,8.29,1,1,1.23,1,250.3,252.3,1,1,0,0,1,1,0,0,0,0,#NULL!,#NULL!,5.4,0,1,-7.78
904,3,640310.65,41,252.31,254.33,1,7.96,0.8,1,0.64,1,255.5,257.5,1,1,0,1,1,1,0,0,0,0,#NULL!,#NULL!,4.6,0,1,-3.123
904,3,640310.65,45,281.27,283.29,1,9.78,0.2,2,1.67,1,285.49,287.49,1,1,0,0,-1,1,0,0,0,0,#NULL!,1,9.78,0,1.3736,1.3736
904,3,640310.65,46,287.51,289.52,1,10.16,0.5,1,0.52,1,290.57,292.57,1,1,0,0,-1,1,0,0,0,0,#NULL!,1,8.3,0,10.0536,10.054
904,3,640310.65,47,292.59,294.61,1,8.87,0.8,1,0.73,1,295.87,297.87,1,1,0,0,0,1,0,0,0,0,#NULL!,#NULL!,5.51,0,9.4245,9.4245
904,3,640310.65,52,324.29,326.31,1,10.25,0.2,1,0.56,1,327.41,329.41,1,1,0,0,-1,1,0,0,0,0,#NULL!,1,10.25,0,0.63,0.63
904,3,640310.65,53,333.14,335.15,1,9.24,0.2,2,0.81,1,336.5,338.5,1,1,0,0,-1,1,0,0,0,0,#NULL!,1,9.24,0,1,-8.65
904,3,640310.65,54,338.52,340.54,1,8.13,1,2,0.62,1,341.69,343.69,1,1,0,0,0,1,0,0,0,0,#NULL!,#NULL!,5.24,0,1,-8.47
904,3,640310.65,55,343.71,345.72,1,8.08,0.8,2,0.72,1,346.97,348.97,1,1,0,0,1,1,0,0,0,0,#NULL!,#NULL!,4.72,0,1,-3.683
904,3,640310.65,57,354.12,356.14,0,-1.67,0.8,2,0.78,1,357.46,359.46,1,1,0,1,-1,0,0,0,1,0,0,#NULL!,5.03,0,0.4545,0.45454
904,3,640310.65,60,374.44,376.46,1,9.66,0.5,2,1.07,1,378.06,380.06,1,1,0,0,-1,1,0,0,0,0,#NULL!,1,7.8,0,9.3236,9.3236
904,3,640310.65,61,382.78,384.8,1,9.99,0.2,2,0.69,1,386.01,388.01,1,1,0,0,-1,1,0,0,0,0,#NULL!,1,9.99,0,1,8.4045
904,3,640310.65,63,393.98,396,1,8.12,1,1,1.68,1,398.21,400.21,1,1,0,0,1,1,0,0,0,0,#NULL!,#NULL!,5.23,0,3.557,3.557
904,3,640310.65,64,404.76,406.77,0,-1.55,1,2,0.63,1,407.94,409.94,1,1,0,1,-1,0,0,0,1,0,0,#NULL!,4.45,0,1,-8.7
904,3,640310.65,67,421.39,423.41,1,9.95,0.2,1,0.55,1,424.49,426.49,1,1,0,0,-1,1,0,0,0,0,#NULL!,1,9.95,0,1,-4.243
904,3,640310.65,68,426.51,428.52,1,10.47,0.5,1,0.84,1,429.89,431.89,1,1,0,0,-1,1,0,0,0,0,#NULL!,1,8.61,0,1,0.75363
904,3,640310.65,69,431.91,433.93,1,8.33,1,2,0.61,1,435.08,437.08,1,1,0,0,0,1,0,0,0,0,#NULL!,#NULL!,5.44,0,0.7745,0.77454
904,3,640310.65,71,442.29,444.31,1,7.55,1,1,0.92,1,445.76,447.76,1,1,0,1,1,1,0,0,0,0,#NULL!,#NULL!,4.66,0,9.9136,9.9136
904,3,640310.65,72,447.78,449.79,0,-1.55,0.8,1,0.38,1,450.71,452.71,1,1,0,1,-1,0,0,0,1,0,0,#NULL!,4.91,0,8.6345,8.6345
904,3,640310.65,75,468.73,470.75,1,9.99,0.2,1,0.61,1,471.9,473.9,1,1,0,0,-1,1,0,0,0,0,#NULL!,1,9.99,0,4.517,4.517
904,3,640310.65,76,477.74,479.76,1,9.24,0.5,1,0.64,1,480.92,482.92,1,1,0,0,-1,1,0,0,0,0,#NULL!,1,7.38,0,1.29,1.29
904,3,640310.65,77,482.94,484.96,1,7.92,1,1,0.86,1,486.36,488.36,1,1,0,1,1,1,0,0,0,0,#NULL!,#NULL!,5.03,0,1,-5.463
904,3,640310.65,78,488.38,490.39,1,8.08,1,2,0.76,1,491.69,493.69,1,1,0,0,1,1,0,0,0,0,#NULL!,#NULL!,5.19,0,1,-3.723
906,1,751559.05,1,0.09,2.11,1,9.33,0.2,2,3.78,1,6.41,8.41,1,2,0,0,-1,1,0,0,0,0,#NULL!,1,8.02,0,1,-0.52546
906,1,751559.05,2,9.22,11.24,1,10.4,0.5,1,1.42,1,13.19,15.19,1,2,0,0,-1,1,0,0,0,0,#NULL!,1,8.66,0,1,0.69454
906,1,751559.05,4,22.29,24.3,0,-2,1,2,1.17,1,26,28,1,2,0,0,-1,0,0,0.02,1,0,0,#NULL!,6.11,0,1,0.91363
906,1,751559.05,7,45.9,47.92,1,9.97,0.2,1,0.95,1,49.4,51.4,1,2,0,0,-1,1,0,0,0,0,#NULL!,1,8.66,0,9.1345,9.1345
906,1,751559.05,8,57.02,59.03,1,9.62,0.5,2,1.48,1,61.05,63.05,1,2,0,0,-1,1,0,0,0,0,#NULL!,1,7.88,0,9.6736,9.6736
906,1,751559.05,9,63.07,65.08,1,8.15,0.8,2,1.21,1,66.83,68.83,1,2,0,0,1,1,0,0.01,0,0,#NULL!,#NULL!,4.71,0,9.1745,9.1745
906,1,751559.05,10,68.85,70.87,1,7.82,0.2,1,0.82,1,72.22,74.22,1,2,0,0,1,1,0,0,0,0,#NULL!,#NULL!,6.51,0,9.8136,9.8136
906,1,751559.05,15,105.17,107.18,1,9.25,0.2,2,1.28,1,109,111,1,2,0,0,-1,1,0,0,0,0,#NULL!,1,7.94,0,3.797,3.797
906,1,751559.05,16,111.02,113.03,1,10.24,0.2,1,1.03,1,114.6,116.6,1,2,0,0,-1,1,0,0,0,0,#NULL!,1,8.93,0,1,1.49
906,1,751559.05,18,125.5,127.52,1,7.98,0.5,1,0.94,1,129,131,1,2,0,0,1,1,0,0.01,0,0,#NULL!,#NULL!,6.24,0,1,-3.823
906,1,751559.05,19,131.02,133.03,1,7.25,0.2,1,0.54,1,134.12,136.12,1,2,0,0,1,1,0,0.01,0,0,#NULL!,#NULL!,5.94,0,1,-7.14
906,1,751559.05,20,136.13,138.15,0,-1.35,0.8,1,0.36,1,139.03,141.03,1,2,0,1,-1,0,0,0.04,1,0,0,#NULL!,4.79,0,1,1.7136
906,1,751559.05,21,144.44,146.46,0,-0.85,1,2,0.58,1,147.58,149.58,1,2,0,1,-1,0,0,0.06,1,0,0,#NULL!,4.96,0,8.8245,8.8245
906,1,751559.05,24,160.41,162.43,1,10.75,1,1,0.91,1,163.88,165.88,1,2,0,0,-1,1,0,0,0,0,#NULL!,1,6.64,0,10.0236,10.024
906,1,751559.05,25,168.01,170.02,1,10.15,0.8,1,0.96,1,171.52,173.52,1,2,0,0,-1,1,0,0,0,0,#NULL!,1,6.71,0,9.2745,9.2745
906,1,751559.05,26,173.54,175.56,1,9.89,0.2,2,0.85,1,176.94,178.94,1,2,0,0,-1,1,0,0,0,0,#NULL!,1,8.58,0,1.45,1.45
906,1,751559.05,28,186.45,188.46,1,7.19,0.2,1,1.88,1,190.88,192.88,1,2,0,0,1,1,0,0.01,0,0,#NULL!,#NULL!,5.88,0,3.447,3.447
906,1,751559.05,30,198.33,200.35,0,-0.44,1,1,0.61,1,201.48,203.48,1,2,0,1,0,0,0,0.09,1,0,#NULL!,#NULL!,4.55,0,1,-4.753
906,1,751559.05,32,211.7,213.71,1,9.8,0.5,1,1.43,1,215.68,217.68,1,2,0,0,-1,1,0,0,0,0,#NULL!,1,8.06,0,1,-8
906,1,751559.05,33,217.7,219.71,1,10.1,0.5,1,1.22,1,221.46,223.46,1,2,0,0,-1,1,0,0,0,0,#NULL!,1,8.36,0,1,-0.22546
906,1,751559.05,34,223.48,225.5,1,10.25,0.8,2,0.77,1,226.8,228.8,1,2,0,0,-1,1,0,0,0,0,#NULL!,1,6.81,0,1.6136,1.6136
906,1,751559.05,35,228.81,230.83,1,8.15,0.2,1,0.82,1,232.18,234.18,1,2,0,0,1,1,0,0,0,0,#NULL!,#NULL!,6.84,0,8.9945,8.9945
906,1,751559.05,36,234.2,236.21,1,7.05,0.5,2,0.83,1,237.58,239.58,1,2,0,0,1,1,0,0.02,0,0,#NULL!,#NULL!,5.31,0,9.9936,9.9936
906,1,751559.05,37,242.59,244.61,0,-1.15,0.8,1,0.78,1,245.92,247.92,1,2,0,1,-1,0,0,0.05,1,0,0,#NULL!,4.59,0,1,1.59
906,1,751559.05,38,253.04,255.05,0,-1.3,1,2,0.73,1,256.32,258.32,1,2,0,1,-1,0,0,0.04,1,0,0,#NULL!,5.41,0,4.357,4.357
906,1,751559.05,41,270.84,272.85,1,9.05,0.5,2,1.06,1,274.45,276.45,1,2,0,0,-1,1,0,0,0,0,#NULL!,1,7.31,0,1,-7.55
906,1,751559.05,42,276.47,278.49,1,9.97,0.2,2,0.7,1,279.72,281.72,1,2,0,0,-1,1,0,0,0,0,#NULL!,1,8.66,0,1,-3.083
906,1,751559.05,43,281.74,283.76,1,8.29,0.5,2,0.79,1,285.07,287.07,1,2,0,0,1,1,0,0,0,0,#NULL!,#NULL!,6.55,0,0.7545,0.75454
906,1,751559.05,44,287.09,289.11,1,7.96,0.8,2,0.5,1,290.14,292.14,1,2,0,0,1,1,0,0.01,0,0,#NULL!,#NULL!,4.52,0,9.7036,9.7036
906,1,751559.05,45,295.16,297.17,0,-1.55,1,1,0.67,1,298.37,300.37,1,2,0,1,-1,0,0,0.03,1,0,0,#NULL!,5.66,0,9.1845,9.1845
906,1,751559.05,48,311.79,313.81,1,9.78,0.5,1,1.17,1,315.51,317.51,1,2,0,0,-1,1,0,0,0,0,#NULL!,1,8.04,0,5.267,5.267
906,1,751559.05,49,319.91,321.92,1,10.16,0.8,2,0.93,1,323.39,325.39,1,2,0,0,-1,1,0,0,0,0,#NULL!,1,6.72,0,1,-7.16
906,1,751559.05,50,325.41,327.42,1,7.34,0.5,2,0.59,1,328.54,330.54,1,2,0,0,1,1,0,0.01,0,0,#NULL!,#NULL!,5.6,0,1,-2.983
906,1,751559.05,52,337.06,339.08,0,-1.46,0.8,1,0.98,1,340.59,342.59,1,2,0,1,-1,0,0,0.04,1,0,0,#NULL!,4.9,0,1,-0.13546
906,1,751559.05,57,368.45,370.47,1,10.22,0.5,1,0.7,1,371.7,373.7,1,2,0,0,-1,1,0,0,0,0,#NULL!,1,8.48,0,1,0.70363
906,1,751559.05,58,373.72,375.74,1,9.48,0.2,1,0.73,1,377,379,1,2,0,0,-1,1,0,0,0,0,#NULL!,1,8.17,0,10.1736,10.174
906,1,751559.05,60,385.47,387.49,1,8.12,0.8,1,0.96,1,388.99,390.99,1,2,0,0,1,1,0,0.01,0,0,#NULL!,#NULL!,4.68,0,9.1636,9.1636
906,1,751559.05,61,391.01,393.02,0,-1.67,0.8,1,1.68,1,395.24,397.24,1,2,0,1,-1,0,0,0.03,1,0,0,#NULL!,5.11,0,1.43,1.43
906,1,751559.05,64,418.05,420.06,1,9.66,0.5,1,3.02,1,423.63,425.63,1,2,0,0,-1,1,0,0,0,0,#NULL!,1,7.92,0,4.477,4.477
906,1,751559.05,65,425.65,427.66,1,9.99,0.2,1,1.09,1,429.28,431.28,1,2,0,0,-1,1,0,0,0,0,#NULL!,1,8.68,0,3.647,3.647
906,1,751559.05,68,445.21,447.23,0,-0.46,1,1,0.75,1,448.51,450.51,1,2,0,1,-1,0,0,0.09,1,0,0,#NULL!,4.57,0,1,-5.273
906,1,751559.05,72,466.73,468.75,1,9.95,0.2,1,2.31,1,471.6,473.6,1,2,0,0,-1,1,0,0,0,0,#NULL!,1,8.64,0,-0.1355,-0.13546
906,1,751559.05,73,475.85,477.86,1,10.47,0.5,1,0.83,1,479.23,481.23,1,2,0,0,-1,1,0,0,0,0,#NULL!,1,8.73,0,0.7645,0.76454
906,1,751559.05,77,498.45,500.47,0,-1.55,0.8,2,0.75,1,501.75,503.75,1,2,0,1,-1,0,0,0.04,1,0,0,#NULL!,4.99,0,8.6845,8.6845
906,1,751559.05,78,508.16,510.17,0,-0.37,1,2,0.69,1,511.4,513.4,1,2,0,1,0,0,0,0.1,1,0,#NULL!,#NULL!,4.48,0,9.9136,9.9136
906,1,751559.05,80,520.17,522.19,1,9.99,0.2,1,1.04,1,523.77,525.77,1,2,0,0,-1,1,0,0,0,0,#NULL!,1,8.68,0,3.487,3.487
906,3,753333.68,1,0.04,2.08,0,-1.77,1,1,1.26,1,3.86,5.86,1,2,0,1,-1,0,0,0.03,1,0,0,#NULL!,4.67,0,1.42,1.42
906,3,753333.68,4,20.91,22.93,1,9.4,0.2,1,0.97,1,24.43,26.43,1,2,0,0,-1,1,0,0,0,0,#NULL!,1,8.08,0,1,-8.25
906,3,753333.68,5,26.44,28.46,1,9.38,0.5,2,0.81,1,29.81,31.81,1,2,0,0,-1,1,0,0,0,0,#NULL!,1,8.16,0,1,-4.123
906,3,753333.68,7,37.06,39.08,0,-2,1,1,1.04,1,40.65,42.65,1,2,0,0,-1,0,0,0.02,1,0,0,#NULL!,4.9,0,1,0.84363
906,3,753333.68,11,64.8,66.82,1,9.99,0.2,2,0.62,1,67.97,69.97,1,2,0,0,-1,1,0,0,0,0,#NULL!,1,8.67,0,9.8736,9.8736
906,3,753333.68,12,72.99,75.01,1,9.61,0.5,1,0.98,1,76.52,78.52,1,2,0,0,-1,1,0,0,0,0,#NULL!,1,8.39,0,9.4945,9.4945
906,3,753333.68,13,78.54,80.56,1,8.12,0.8,1,1.35,1,82.44,84.44,1,2,0,0,0,1,0,0.01,0,0,#NULL!,#NULL!,4.76,0,1.63,1.63
906,3,753333.68,14,84.46,86.47,1,7.99,1,2,0.83,1,87.84,89.84,1,2,0,0,1,1,0,0.01,0,0,#NULL!,#NULL!,5.1,0,3.617,3.617
906,3,753333.68,15,89.86,91.87,0,-1.86,0.8,2,0.9,1,93.31,95.31,1,2,0,1,-1,0,0,0.03,1,0,0,#NULL!,5.22,0,1,0.85
906,3,753333.68,20,124.02,126.04,1,10.11,0.5,2,0.75,1,127.32,129.32,1,2,0,0,-1,1,0,0,0,0,#NULL!,1,8.89,0,1,-5.153
906,3,753333.68,21,131.3,133.31,1,9.75,0.2,2,1.45,1,135.29,137.29,1,2,0,0,-1,1,0,0,0,0,#NULL!,1,8.43,0,1,-7.07
906,3,753333.68,22,137.31,139.33,1,10.15,0.5,2,0.84,1,140.7,142.7,1,2,0,0,-1,1,0,0,0,0,#NULL!,1,8.93,0,1,0.064536
906,3,753333.68,23,142.71,144.73,1,9.89,0.2,1,0.81,1,146.08,148.08,1,2,0,0,-1,1,0,0,0,0,#NULL!,1,8.57,0,9.9136,9.9136
906,3,753333.68,25,153.23,155.25,1,8.19,1,2,2.03,1,157.81,159.81,1,2,0,0,1,1,0,0.01,0,0,#NULL!,#NULL!,5.3,0,8.2645,8.2645
906,3,753333.68,29,177.94,179.96,1,9.8,0.5,2,1.21,1,181.69,183.69,1,2,0,0,-1,1,0,0,0,0,#NULL!,1,8.58,0,1,1.22
906,3,753333.68,30,183.71,185.72,1,10.1,0.2,2,0.88,1,187.14,189.14,1,2,0,0,-1,1,0,0,0,0,#NULL!,1,8.78,0,1,1.38
906,3,753333.68,31,191.66,193.68,1,10.25,0.5,1,1.22,1,195.43,197.43,1,2,0,0,-1,1,0,0,0,0,#NULL!,1,9.03,0,1,-7.76
906,3,753333.68,32,197.44,199.46,1,8.15,1,2,0.97,1,200.96,202.96,1,2,0,0,1,1,0,0.01,0,0,#NULL!,#NULL!,5.26,0,1,-3.953
906,3,753333.68,34,210.18,212.19,0,-1.15,0.8,2,0.81,1,213.54,215.54,1,2,0,1,-1,0,0,0.05,1,0,0,#NULL!,4.51,0,9.3936,9.3936
906,3,753333.68,38,236.05,238.07,1,9.97,0.5,1,1.03,1,239.64,241.64,1,2,0,0,-1,1,0,0,0,0,#NULL!,1,8.75,0,9.0045,9.0045
906,3,753333.68,39,241.65,243.67,1,10.07,0.2,1,0.72,1,244.92,246.92,1,2,0,0,-1,1,0,0,0,0,#NULL!,1,8.75,0,6.2145,6.2145
906,3,753333.68,40,246.94,248.95,1,8.29,1,1,1.07,1,250.55,252.55,1,2,0,0,1,1,0,0.01,0,0,#NULL!,#NULL!,5.4,0,6.2445,6.2445
906,3,753333.68,41,252.57,254.59,1,7.96,0.8,1,0.7,1,255.82,257.82,1,2,0,0,1,1,0,0.01,0,0,#NULL!,#NULL!,4.6,0,1,-7.62
906,3,753333.68,45,278.43,280.44,1,9.78,0.2,2,1.66,1,282.65,284.65,1,2,0,0,-1,1,0,0,0,0,#NULL!,1,8.46,0,1,-3.913
906,3,753333.68,46,284.66,286.68,1,10.16,0.5,1,1.19,1,288.4,290.4,1,2,0,0,-1,1,0,0,0,0,#NULL!,1,8.94,0,1,-0.56546
906,3,753333.68,47,290.41,292.43,1,8.87,0.8,1,0.64,1,293.6,295.6,1,2,0,0,0,1,0,0,0,0,#NULL!,#NULL!,5.51,0,1,0.76454
906,3,753333.68,52,322.26,324.28,1,10.25,0.2,1,2.64,1,327.45,329.45,1,2,0,0,-1,1,0,0,0,0,#NULL!,1,8.93,0,1.0636,1.0636
906,3,753333.68,53,331.81,333.83,1,9.24,0.2,2,1.23,1,335.6,337.6,1,2,0,0,-1,1,0,0,0,0,#NULL!,1,7.92,0,9.7036,9.7036
906,3,753333.68,54,337.61,339.63,1,8.13,1,2,2.09,1,342.25,344.25,1,2,0,0,0,1,0,0.01,0,0,#NULL!,#NULL!,5.24,0,1,9.0145
906,3,753333.68,55,344.26,346.28,1,8.08,0.8,2,0.86,1,347.68,349.68,1,2,0,0,1,1,0,0.01,0,0,#NULL!,#NULL!,4.72,0,1,0.73
906,3,753333.68,57,355.31,357.33,0,-1.67,0.8,2,0.9,1,358.76,360.77,1,2,0,1,-1,0,0,0.03,1,0,0,#NULL!,5.03,0,1,-8.21
906,3,753333.68,60,376.25,378.27,1,9.66,0.5,2,0.95,1,379.75,381.75,1,2,0,0,-1,1,0,0,0,0,#NULL!,1,8.44,0,1,-2.843
906,3,753333.68,61,383.41,385.43,1,9.99,0.2,2,0.85,1,386.81,388.82,1,2,0,0,-1,1,0,0,0,0,#NULL!,1,8.67,0,1,-0.14546
906,3,753333.68,63,394.4,396.42,1,8.12,1,1,1.15,1,398.1,400.1,1,2,0,0,1,1,0,0.01,0,0,#NULL!,#NULL!,5.23,0,1,0.22454
906,3,753333.68,64,403.34,405.35,0,-1.55,1,2,0.84,1,406.72,408.72,1,2,0,1,-1,0,0,0.03,1,0,0,#NULL!,4.45,0,1.6936,1.6936
906,3,753333.68,67,419.46,421.47,1,9.95,0.2,1,0.84,1,422.84,424.84,1,2,0,0,-1,1,0,0,0,0,#NULL!,1,8.63,0,10.0236,10.024
906,3,753333.68,68,424.86,426.87,1,10.47,0.5,1,0.78,1,428.19,430.19,1,2,0,0,-1,1,0,0,0,0,#NULL!,1,9.25,0,8.5745,8.5745
906,3,753333.68,69,430.21,432.22,1,8.33,1,2,1.19,1,433.96,435.96,1,2,0,0,0,1,0,0.01,0,0,#NULL!,#NULL!,5.44,0,4.277,4.277
906,3,753333.68,71,441.54,443.56,1,7.55,1,1,0.52,1,444.61,446.61,1,2,0,0,1,1,0,0.01,0,0,#NULL!,#NULL!,4.66,0,2.2,2.2
906,3,753333.68,72,446.63,448.64,0,-1.55,0.8,1,0.48,1,449.66,451.66,1,2,0,1,-1,0,0,0.04,1,0,0,#NULL!,4.91,0,3.617,3.617
906,3,753333.68,75,464.98,466.99,1,9.99,0.2,1,0.42,1,467.94,469.94,1,2,0,0,-1,1,0,0,0,0,#NULL!,1,8.67,0,1,-7.07
906,3,753333.68,76,471.77,473.78,1,9.24,0.5,1,0.47,1,474.78,476.78,1,2,0,0,-1,1,0,0,0,0,#NULL!,1,8.02,0,1,-3.053
906,3,753333.68,77,476.8,478.82,1,7.92,1,1,0.75,1,480.1,482.1,1,2,0,0,1,1,0,0.01,0,0,#NULL!,#NULL!,5.03,0,1,0.93363
906,3,753333.68,78,482.12,484.13,1,8.08,1,2,0.97,1,485.63,487.63,1,2,0,0,1,1,0,0.01,0,0,#NULL!,#NULL!,5.19,0,9.2636,9.2636
907,1,2041550.83,4,16.63,18.65,0,-2,1,2,0.78,1,19.96,21.96,1,2,0,0,-1,0,0,0,0,0,0,#NULL!,12,0,9.2045,9.2045
907,1,2041550.83,5,27.83,29.85,0,-0.03,0.8,2,2.25,1,32.63,34.63,1,2,0,0,0,0,0,0,1,0,#NULL!,#NULL!,7.47,0,4.557,4.557
907,1,2041550.83,6,34.67,36.68,0,1.28,0.5,1,0.58,1,37.8,39.8,1,2,0,0,1,0,0,0.17,1,0,#NULL!,#NULL!,8.72,0,4.367,4.367
907,1,2041550.83,11,67.98,70,0,-0.2,1,2,0.82,1,71.35,73.35,1,2,0,0,0,0,0,0,0,0,#NULL!,#NULL!,10.2,0,1,-4.413
907,1,2041550.83,12,73.37,75.38,0,-0.8,0.8,2,1.01,1,76.92,78.92,1,2,0,0,0,0,0,0,0,0,#NULL!,#NULL!,8.24,0,1,0.67454
907,1,2041550.83,13,78.93,80.95,0,0.6,0.2,1,0.56,1,82.05,84.05,1,2,0.02,1,1,0,0,0.34,1,0,#NULL!,#NULL!,9.4,0,1.8636,1.8636
907,1,2041550.83,14,84.07,86.08,0,1.27,0.5,1,0.54,1,87.15,89.15,1,2,0,0,1,0,0,0.17,1,0,#NULL!,#NULL!,8.73,0,10.0145,10.015
907,1,2041550.83,20,123.3,125.31,0,-1.35,0.8,1,0.39,1,126.23,128.23,1,2,0,0,-1,0,0,0,0,0,0,#NULL!,8.79,0,9.4436,9.4436
907,1,2041550.83,21,129.72,131.74,0,-0.85,1,2,0.94,1,133.22,135.22,1,2,0,0,-1,0,0,0,0,0,0,#NULL!,10.85,0,1,1.56
907,1,2041550.83,22,135.24,137.26,0,0.52,0.2,2,0.93,1,138.72,140.72,1,2,0.02,1,0,0,0,0.27,1,0,#NULL!,#NULL!,9.48,0,4.637,4.637
907,1,2041550.83,23,140.74,142.76,0,0.95,0.5,2,0.92,1,144.21,146.21,1,2,0,0,1,0,0,0.06,1,0,#NULL!,#NULL!,9.05,0,1,-6.75
907,1,2041550.83,29,182.14,184.16,0,-0.22,0.8,2,0.81,1,185.49,187.49,1,2,0,0,0,0,0,0,0,0,#NULL!,#NULL!,7.66,0,1,-3.453
907,1,2041550.83,30,187.51,189.53,0,-0.44,1,1,0.3,1,190.36,192.36,1,2,0,0,0,0,0,0,0,0,#NULL!,#NULL!,10.44,0,1,-0.45546
907,1,2041550.83,31,192.38,194.39,0,1.69,0.2,2,0.82,1,195.74,197.74,1,2,0.07,1,1,0,0,0.23,1,0,#NULL!,#NULL!,8.31,0,1.5736,1.5736
907,1,2041550.83,37,232.56,234.57,0,-1.15,0.8,1,0.42,1,235.52,237.52,1,2,0,0,-1,0,0,0,0,0,0,#NULL!,8.59,0,9.1345,9.1345
907,1,2041550.83,38,241.79,243.81,0,-1.3,1,2,0.74,1,245.09,247.09,1,2,0,0,-1,0,0,0,0,0,0,#NULL!,11.3,0,9.4936,9.4936
907,1,2041550.83,39,247.11,249.12,0,1.75,0.5,1,1.03,1,250.69,252.69,1,2,0.01,1,1,0,0,0.63,1,0,#NULL!,#NULL!,8.25,0,8.2745,8.2745
907,1,2041550.83,40,252.71,254.72,0,0.89,0.2,1,0.31,1,255.57,257.57,1,2,0.03,1,1,0,0,0.7,1,0,#NULL!,#NULL!,9.11,0,4.257,4.257
907,1,2041550.83,45,285,287.01,0,-1.55,1,1,0.4,1,287.94,289.94,1,2,0,0,-1,0,0,0,0,0,0,#NULL!,11.55,0,4.417,4.417
907,1,2041550.83,46,289.96,291.98,0,-0.52,0.8,1,1.11,1,293.63,295.63,1,2,0,0,0,0,0,0,0,0,#NULL!,#NULL!,7.96,0,1,0.92
907,1,2041550.83,47,295.64,297.66,0,0.92,0.2,2,0.87,1,299.06,301.06,1,2,0.03,1,1,0,0,0.74,1,0,#NULL!,#NULL!,9.08,0,1,-8.66
907,1,2041550.83,52,327.73,329.75,0,-1.46,0.8,1,0.3,1,330.58,332.58,1,2,0,0,-1,0,0,0,0,0,0,#NULL!,8.9,0,1,-0.34546
907,1,2041550.83,53,336.82,338.83,0,-0.01,0.5,1,0.43,1,339.8,341.8,1,2,0,0,0,0,0,0,1,0,#NULL!,#NULL!,10.01,0,1.1136,1.1136
907,1,2041550.83,54,341.81,343.83,0,0.92,0.5,2,0.79,1,345.15,347.15,1,2,0,0,1,0,0,0.05,1,0,#NULL!,#NULL!,9.08,0,9.1336,9.1336
907,1,2041550.83,55,347.17,349.18,0,1.46,1,1,1.1,1,350.82,352.82,1,2,0,0,1,0,0,0,0,0,#NULL!,#NULL!,8.54,0,8.2145,8.2145
907,1,2041550.83,56,352.83,354.85,0,0.85,0.5,2,0.86,1,356.23,358.23,1,2,0,0,1,0,0,0.04,1,0,#NULL!,#NULL!,9.15,0,1,1.16
907,1,2041550.83,61,381.09,383.1,0,-1.67,0.8,1,0.69,1,384.32,386.32,1,2,0,0,-1,0,0,0,0,0,0,#NULL!,9.11,0,4.057,4.057
907,1,2041550.83,62,390.9,392.91,0,0.84,0.2,2,0.76,1,394.21,396.21,1,2,0.03,1,0,0,0,0.62,1,0,#NULL!,#NULL!,9.16,0,1,-6.92
907,1,2041550.83,63,396.23,398.25,0,1.74,0.5,1,0.59,1,399.38,401.38,1,2,0.01,1,1,0,0,0.61,1,0,#NULL!,#NULL!,8.26,0,1,-2.763
907,1,2041550.83,68,432.46,434.48,0,-0.46,1,1,0.84,1,435.84,437.84,1,2,0,0,-1,0,0,0,0,0,0,#NULL!,10.46,0,1,-1.983
907,1,2041550.83,69,437.86,439.88,0,0.62,0.8,1,0.42,1,440.83,442.83,1,2,0,0,0,0,0,0,1,0,#NULL!,#NULL!,6.82,0,1.0136,1.0136
907,1,2041550.83,70,442.84,444.86,0,0.84,0.5,1,0.79,1,446.18,448.18,1,2,0,0,1,0,0,0.04,1,0,#NULL!,#NULL!,9.16,0,10.1636,10.164
907,1,2041550.83,71,448.19,450.21,0,0.78,0.2,1,0.54,1,451.29,453.29,1,2,0.03,1,1,0,0,0.54,1,0,#NULL!,#NULL!,9.22,0,8.6945,8.6945
907,1,2041550.83,77,486.53,488.54,0,-1.55,0.8,2,0.76,1,489.84,491.85,1,2,0,0,-1,0,0,0,0,0,0,#NULL!,8.99,0,4.237,4.237
907,1,2041550.83,78,496.64,498.65,0,-0.37,1,2,0.64,1,499.82,501.82,1,2,0,0,0,0,0,0,0,0,#NULL!,#NULL!,10.37,0,1,1.35
907,1,2041550.83,79,501.83,503.85,0,1.04,0.5,2,1.29,1,505.68,507.68,1,2,0,0,1,0,0,0.08,1,0,#NULL!,#NULL!,8.96,0,1,-7.96
907,3,2042994.92,1,0.04,2.07,0,-1.77,1,1,0.57,1,3.17,5.17,1,2,0,0,-1,0,0,0,0,0,0,#NULL!,11.77,0,1,-1.1355
907,3,2042994.92,2,5.2,7.22,0,-0.08,0.8,1,0.31,1,8.05,10.05,1,2,0,0,0,0,0,0,1,0,#NULL!,#NULL!,8.76,0,1,0.91363
907,3,2042994.92,3,10.08,12.1,0,1.43,0.5,2,0.57,1,13.2,15.2,1,2,0,0,1,0,0,0.27,1,0,#NULL!,#NULL!,5.07,0,1.1936,1.1936
907,3,2042994.92,4,19.27,21.29,1,9.4,0.2,1,0.94,1,22.75,24.75,1,2,0.01,1,-1,1,0,0,0,0,#NULL!,1,4.19,0,10.0036,10.004
907,3,2042994.92,7,35.45,37.47,0,-2,1,1,0.98,1,38.99,40.99,1,2,0,0,-1,0,0,0,0,0,0,#NULL!,12,0,8.9645,8.9645
907,3,2042994.92,8,46.45,48.46,0,-0.64,0.8,1,0.25,1,49.25,51.25,1,2,0,0,0,0,0,0,0,0,#NULL!,#NULL!,9.32,0,3.657,3.657
907,3,2042994.92,9,51.26,53.28,0,0.83,0.2,2,0.7,1,54.52,56.52,1,2,0.03,1,0,0,0,0.61,1,0,#NULL!,#NULL!,4.38,0,1,1.08
907,3,2042994.92,10,56.53,58.55,0,1.75,0.5,2,0.87,1,59.95,61.95,1,2,0.01,1,1,0,0,0.63,1,0,#NULL!,#NULL!,4.75,0,1,-7.85
907,3,2042994.92,11,61.97,63.98,1,9.99,0.2,2,0.92,1,65.43,67.43,1,2,0,0,-1,1,0,0,0,0,#NULL!,1,4.78,0,1,-4.143
907,3,2042994.92,15,92.91,94.93,0,-1.86,0.8,2,0.76,1,96.23,98.23,1,2,0,0,-1,0,0,0,0,0,0,#NULL!,10.54,0,1,-0.055464
907,3,2042994.92,16,102.52,104.53,0,-0.12,0.8,2,0.69,1,105.75,107.75,1,2,0,0,0,0,0,0,1,0,#NULL!,#NULL!,8.8,0,1.4636,1.4636
907,3,2042994.92,17,107.76,109.78,0,0.45,0.5,1,0.24,1,110.55,112.55,1,2,0,0,1,0,0,0.01,1,0,#NULL!,#NULL!,6.05,0,9.8436,9.8436
907,3,2042994.92,18,112.57,114.58,0,1.67,0.5,2,0.61,1,115.73,117.73,1,2,0.01,0,1,0,0,0.52,1,0,#NULL!,#NULL!,4.83,0,6.2945,6.2945
907,3,2042994.92,19,122.07,124.09,0,0.99,0.2,1,0.35,1,124.97,126.97,1,2,0.03,1,1,0,0,0.86,1,0,#NULL!,#NULL!,4.22,0,1,0.85
907,3,2042994.92,21,136.47,138.49,1,9.75,0.2,2,1.06,1,140.09,142.09,1,2,0.01,1,-1,1,0,0,0,0,#NULL!,1,4.54,0,1,-8.65
907,3,2042994.92,23,147.67,149.69,1,9.89,0.2,1,0.85,1,151.07,153.07,1,2,0.01,0,-1,1,0,0,0,0,#NULL!,1,4.68,0,1,-3.713
907,3,2042994.92,26,168.44,170.46,0,-0.22,0.8,1,0.29,1,171.27,173.27,1,2,0,0,-1,0,0,0,0,0,0,#NULL!,8.9,0,1,0.84363
907,3,2042994.92,27,173.29,175.31,0,-0.44,1,2,0.58,1,176.42,178.42,1,2,0,0,-1,0,0,0,0,0,0,#NULL!,10.44,0,0.7645,0.76454
907,3,2042994.92,30,189.11,191.13,1,10.1,0.2,2,0.9,1,192.56,194.56,1,2,0,0,-1,1,0,0,0,0,#NULL!,1,4.89,0,9.212,9.212
907,3,2042994.92,34,218.35,220.37,0,-1.15,0.8,2,2.39,1,223.29,225.29,1,2,0,0,-1,0,0,0,0,0,0,#NULL!,9.83,0,10.1918,10.192
907,3,2042994.92,35,225.3,227.32,0,-1.3,1,1,2.11,1,229.97,231.97,1,2,0,0,-1,0,0,0,0,0,0,#NULL!,11.3,0,7.5113,7.5113
907,3,2042994.92,36,235.97,237.98,0,0.75,0.5,2,0.77,1,239.28,241.28,1,2,0,0,1,0,0,0.03,1,0,#NULL!,#NULL!,5.75,0,1,-2.32
907,3,2042994.92,39,251.7,253.72,1,10.07,0.2,1,0.49,1,254.73,256.73,1,2,0,0,-1,1,0,0,0,0,#NULL!,1,4.86,0,1,-0.30865
907,3,2042994.92,42,271.69,273.71,0,-0.85,1,1,0.47,1,274.71,276.71,1,2,0,0,-1,0,0,0,0,0,0,#NULL!,10.85,0,1.0718,1.0718
907,3,2042994.92,43,276.73,278.74,0,0.52,0.8,1,0.36,1,279.65,281.65,1,2,0,0,0,0,0,0,1,0,#NULL!,#NULL!,8.16,0,9.852,9.852
907,3,2042994.92,44,281.66,283.68,0,1.73,0.5,1,1.61,1,285.83,287.83,1,2,0.01,0,1,0,0,0.6,1,0,#NULL!,#NULL!,4.77,0,9.4118,9.4118
907,3,2042994.92,45,290.71,292.73,1,9.78,0.2,2,1.55,1,294.81,296.81,1,2,0.01,1,-1,1,0,0,0,0,#NULL!,1,4.57,0,7.8713,7.8713
907,3,2042994.92,48,307.48,309.5,0,-0.46,1,1,0.33,1,310.36,312.36,1,2,0,0,-1,0,0,0,0,0,0,#NULL!,10.46,0,7.702,7.702
907,3,2042994.92,49,316.84,318.85,0,0.62,0.8,2,0.74,1,320.14,322.14,1,2,0,0,0,0,0,0,1,0,#NULL!,#NULL!,8.06,0,1,-0.52
907,3,2042994.92,50,322.15,324.17,0,0.84,0.5,2,0.84,1,325.55,327.55,1,2,0,0,1,0,0,0.04,1,0,#NULL!,#NULL!,5.66,0,1,-1.0787
907,3,2042994.92,51,327.57,329.59,0,0.78,0.2,1,1.03,1,331.16,333.16,1,2,0.03,1,1,0,0,0.54,1,0,#NULL!,#NULL!,4.43,0,1,0.48203
907,3,2042994.92,52,333.17,335.19,1,10.25,0.2,1,0.8,1,336.52,338.52,1,2,0,0,-1,1,0,0,0,0,#NULL!,1,5.04,0,1.0618,1.0618
907,3,2042994.92,57,367.13,369.15,0,-1.67,0.8,2,0.95,1,370.63,372.63,1,2,0,0,-1,0,0,0,0,0,0,#NULL!,10.35,0,9.132,9.132
907,3,2042994.92,58,376.54,378.56,0,0.84,0.5,1,0.37,1,379.46,381.46,1,2,0,0,0,0,0,0.04,1,0,#NULL!,#NULL!,5.66,0,10.122,10.122
907,3,2042994.92,59,381.47,383.49,0,1.74,0.5,2,1.72,1,385.74,387.74,1,2,0.01,1,1,0,0,0.61,1,0,#NULL!,#NULL!,4.76,0,7.81,7.81
907,3,2042994.92,61,402.4,404.42,1,9.99,0.2,2,1.25,1,406.2,408.2,1,2,0,0,-1,1,0,0,0,0,#NULL!,1,4.78,0,7.7718,7.7718
907,3,2042994.92,64,423.81,425.82,0,-1.55,1,2,0.87,1,427.22,429.22,1,2,0,0,-1,0,0,0,0,0,0,#NULL!,11.55,0,7.132,7.132
907,3,2042994.92,65,429.24,431.26,0,-0.52,0.8,2,0.63,1,432.42,434.42,1,2,0,0,0,0,0,0,0,0,#NULL!,#NULL!,9.2,0,1,-1.6287
907,3,2042994.92,66,434.44,436.46,0,0.92,0.2,1,0.31,1,437.31,439.31,1,2,0.03,1,1,0,0,0.74,1,0,#NULL!,#NULL!,4.29,0,1,-1.17
907,3,2042994.92,67,439.33,441.34,1,9.95,0.2,1,0.84,1,442.73,444.73,1,2,0,0,-1,1,0,0,0,0,#NULL!,1,4.74,0,1,0.40203
907,3,2042994.92,72,466.36,468.38,0,-1.55,0.8,1,0.51,1,469.43,471.43,1,2,0,0,-1,0,0,0,0,0,0,#NULL!,10.23,0,1,0.74179
907,3,2042994.92,73,475.51,477.52,0,-0.37,1,1,0.52,1,478.58,480.58,1,2,0,0,0,0,0,0,0,0,#NULL!,#NULL!,10.37,0,10.43,10.43
907,3,2042994.92,74,480.59,482.61,0,1.04,0.5,2,0.87,1,484.01,486.01,1,2,0,0,1,0,0,0.08,1,0,#NULL!,#NULL!,5.46,0,9.8713,9.8713
907,3,2042994.92,75,486.03,488.04,1,9.99,0.2,1,0.73,1,489.31,491.31,1,2,0,0,-1,1,0,0,0,0,#NULL!,1,4.78,0,9.772,9.772
907,3,2042994.92,79,513.57,515.58,0,-1.06,1,1,0.61,1,516.73,518.73,1,2,0,0,-1,0,0,0,0,0,0,#NULL!,11.06,0,7.08,7.08
907,3,2042994.92,80,518.75,520.77,0,-0.35,0.8,2,1.13,1,522.43,524.43,1,2,0,0,0,0,0,0,0,0,#NULL!,#NULL!,9.03,0,7.072,7.072
908,1,1953065.77,1,0.16,2.17,1,9.33,0.2,2,0.42,1,3.14,5.14,1,1,0,0,-1,1,0,0,0,0,#NULL!,1,4.78,0,1,-0.49865
908,1,1953065.77,2,5.17,7.19,1,10.4,0.5,1,0.46,1,8.17,10.17,1,1,0,0,-1,1,0,0,0,0,#NULL!,1,9.11,0,1,-0.76
908,1,1953065.77,4,15.3,17.32,0,-2,1,2,0.52,1,18.37,20.37,1,1,0.19,1,-1,0,0,0,0,0,0,#NULL!,6.11,0,1,1.572
908,1,1953065.77,7,35.99,38,1,9.97,0.2,1,0.26,1,38.8,40.8,1,1,0,0,-1,1,0,0,0,0,#NULL!,1,5.42,0,9.5918,9.5918
908,1,1953065.77,8,45.43,47.44,1,9.62,0.5,2,0.39,1,48.36,50.36,1,1,0,0,-1,1,0,0,0,0,#NULL!,1,8.33,0,9.8918,9.8918
908,1,1953065.77,9,50.38,52.39,1,8.15,0.8,2,0.9,1,53.83,55.83,1,1,0.01,1,1,1,0,0,0,0,#NULL!,#NULL!,4.71,0,9.9713,9.9713
908,1,1953065.77,15,88.74,90.76,1,9.25,0.2,2,0.95,1,92.24,94.24,1,1,0,0,-1,1,0,0,0,0,#NULL!,1,4.7,0,8.032,8.032
908,1,1953065.77,16,94.26,96.27,1,10.24,0.2,1,0.43,1,97.24,99.24,1,1,0,0,-1,1,0,0,0,0,#NULL!,1,5.69,0,6.8418,6.8418
908,1,1953065.77,18,108.27,110.29,1,7.98,0.5,1,0.38,1,111.2,113.2,1,1,0.01,1,1,1,0,0,0,0,#NULL!,#NULL!,6.69,0,1,-1.4287
908,1,1953065.77,20,118.27,120.29,0,-1.35,0.8,1,0.29,1,121.12,123.12,1,1,0.3,1,-1,0,0,0,0,0,0,#NULL!,4.79,0,1,-1.62
908,1,1953065.77,21,126.86,128.88,0,-0.85,1,2,0.74,1,130.14,132.14,1,1,0.4,1,-1,0,0,0,0,0,0,#NULL!,4.96,0,1.5418,1.5418
908,1,1953065.77,24,142.83,144.85,1,10.75,1,1,0.38,1,145.76,147.76,1,1,0,0,-1,1,0,0,0,0,#NULL!,1,6.64,0,1,0.77203
908,1,1953065.77,25,150.92,152.93,1,10.15,0.8,1,0.36,1,153.83,155.83,1,1,0,0,-1,1,0,0,0,0,#NULL!,1,6.71,0,8.8418,8.8418
908,1,1953065.77,26,155.85,157.87,0,9.89,0.2,2,0.71,1,159.12,161.12,1,1,0,0,-1,1,1,0,0,0,#NULL!,0,5.34,0,9.852,9.852
908,1,1953065.77,30,180.59,182.6,0,-0.44,1,1,0.42,1,183.55,185.55,1,1,0.51,1,0,0,0,0,0,0,#NULL!,#NULL!,4.55,0,8.0818,8.0818
908,1,1953065.77,32,193.13,195.14,1,9.8,0.5,1,0.4,1,196.07,198.07,1,1,0,0,-1,1,0,0,0,0,#NULL!,1,8.51,0,7.6813,7.6813
908,1,1953065.77,33,198.09,200.11,1,10.1,0.5,1,0.35,1,200.99,202.99,1,1,0,0,-1,1,0,0,0,0,#NULL!,1,8.81,0,1,-1.87
908,1,1953065.77,34,203.01,205.02,1,10.25,0.8,2,1.58,1,207.14,209.14,1,1,0,0,-1,1,0,0,0,0,#NULL!,1,6.81,0,1,-0.79865
908,1,1953065.77,36,214.43,216.44,1,7.05,0.5,2,0.77,1,217.74,219.74,1,1,0.02,1,1,1,0,0,0,0,#NULL!,#NULL!,5.76,0,1,0.80203
908,1,1953065.77,37,221.8,223.81,0,-1.15,0.8,1,0.34,1,224.7,226.7,1,1,0.34,1,-1,0,0,0,0,0,0,#NULL!,4.59,0,9.5718,9.5718
908,1,1953065.77,38,228.93,230.95,0,-1.3,1,2,0.7,1,232.18,234.18,1,1,0.31,1,-1,0,0,0,0,0,0,#NULL!,5.41,0,9.8813,9.8813
908,1,1953065.77,41,244.46,246.48,1,9.05,0.5,2,0.88,1,247.9,249.9,1,1,0.01,0,-1,1,0,0,0,0,#NULL!,1,7.76,0,7.1318,7.1318
908,1,1953065.77,42,249.92,251.93,1,9.97,0.2,2,0.78,1,253.25,255.25,1,1,0,0,-1,1,0,0,0,0,#NULL!,1,5.42,0,7.76,7.76
908,1,1953065.77,43,255.27,257.28,1,8.29,0.5,2,0.59,1,258.42,260.42,1,1,0.01,1,1,1,0,0,0,0,#NULL!,#NULL!,7,0,1,-1.7387
908,1,1953065.77,45,267.49,269.5,0,-1.55,1,1,0.68,1,270.72,272.72,1,1,0.26,1,-1,0,0,0,0,0,0,#NULL!,5.66,0,1,-0.21821
908,1,1953065.77,48,283.17,285.19,1,9.78,0.5,1,0.29,1,286,288,1,1,0,0,-1,1,0,0,0,0,#NULL!,1,8.49,0,1,0.71179
908,1,1953065.77,49,290.8,292.81,1,10.16,0.8,2,0.81,1,294.15,296.15,1,1,0,0,-1,1,0,0,0,0,#NULL!,1,6.72,0,1,1.14
908,1,1953065.77,50,296.17,298.18,1,7.34,0.5,2,0.73,1,299.45,301.45,1,1,0.02,1,1,1,0,0,0,0,#NULL!,#NULL!,6.05,0,1,0.64179
908,1,1953065.77,52,306.3,308.32,0,-1.46,0.8,1,0.35,1,309.2,311.2,1,1,0.28,1,-1,0,0,0,0,0,0,#NULL!,4.9,0,10.0118,10.012
908,1,1953065.77,57,334.05,336.07,1,10.22,0.5,1,0.43,1,337.03,339.03,1,1,0,0,-1,1,0,0,0,0,#NULL!,1,8.93,0,9.362,9.362
908,1,1953065.77,58,339.05,341.07,1,9.48,0.2,1,0.29,1,341.89,343.89,1,1,0,0,-1,1,0,0,0,0,#NULL!,1,4.93,0,7.6,7.6
908,1,1953065.77,60,349.24,351.25,1,8.12,0.8,1,0.49,1,352.27,354.27,1,1,0.01,1,1,1,0,0,0,0,#NULL!,#NULL!,4.68,0,7.8413,7.8413
908,1,1953065.77,61,354.29,356.3,0,-1.67,0.8,1,0.44,1,357.29,359.29,1,1,0.24,1,-1,0,0,0,0,0,0,#NULL!,5.11,0,1,-1.9487
908,1,1953065.77,64,372.94,374.96,1,9.66,0.5,1,0.34,1,375.84,377.84,1,1,0,0,-1,1,0,0,0,0,#NULL!,1,8.37,0,1,0.72203
908,1,1953065.77,65,377.86,379.88,1,9.99,0.2,1,0.3,1,380.71,382.71,1,1,0,0,-1,1,0,0,0,0,#NULL!,1,5.44,0,1.5318,1.5318
908,1,1953065.77,68,394.8,396.81,0,-0.46,1,1,0.53,1,397.88,399.88,1,1,0.51,1,-1,0,0,0,0,0,0,#NULL!,4.57,0,9.4518,9.4518
908,1,1953065.77,72,414.68,416.7,1,9.95,0.2,1,0.38,1,417.62,419.62,1,1,0,0,-1,1,0,0,0,0,#NULL!,1,5.4,0,9.872,9.872
908,1,1953065.77,73,421.63,423.65,1,10.47,0.5,1,0.6,1,424.78,426.78,1,1,0,0,-1,1,0,0,0,0,#NULL!,1,9.18,0,6.8113,6.8113
908,1,1953065.77,77,441.6,443.62,0,-1.55,0.8,2,0.64,1,444.8,446.8,1,1,0.26,1,-1,0,0,0,0,0,0,#NULL!,4.99,0,7.8,7.8
908,1,1953065.77,80,460.67,462.69,1,9.99,0.2,1,0.31,1,463.54,465.54,1,1,0,0,-1,1,0,0,0,0,#NULL!,1,5.44,0,1,-0.78
908,3,1954715.39,1,0.04,2.07,0,-1.77,1,1,0.93,1,3.54,5.54,1,1,0.23,1,-1,0,0,0,0,0,0,#NULL!,4.67,0,1,0.34135
908,3,1954715.39,4,18.53,20.54,1,9.4,0.2,1,0.4,1,21.48,23.48,1,1,0,0,-1,1,0,0,0,0,#NULL!,1,8.08,0,1,0.63179
908,3,1954715.39,5,23.49,25.51,1,9.38,0.5,2,0.52,1,26.56,28.56,1,1,0,0,-1,1,0,0,0,0,#NULL!,1,8.16,0,1,0.66203
908,3,1954715.39,6,28.58,30.59,1,7.16,0.8,1,0.56,1,31.68,33.68,1,1,0.02,1,1,1,0,0,0,0,#NULL!,#NULL!,7.16,0,9.832,9.832
908,3,1954715.39,7,33.71,35.73,0,-2,1,1,0.4,1,36.66,38.66,1,1,0.19,1,-1,0,0,0,0,0,0,#NULL!,4.9,0,10.2618,10.262
908,3,1954715.39,11,56.77,58.79,1,9.99,0.2,2,0.71,1,60.02,62.02,1,1,0,0,-1,1,0,0,0,0,#NULL!,1,8.67,0,8.01,8.01
908,3,1954715.39,12,64.35,66.37,1,9.61,0.5,1,0.28,1,67.19,69.19,1,1,0,0,-1,1,0,0,0,0,#NULL!,1,8.39,0,6.9413,6.9413
908,3,1954715.39,13,69.2,71.22,1,8.12,0.8,1,0.35,1,72.11,74.11,1,1,0.01,1,0,1,0,0,0,0,#NULL!,#NULL!,8.12,0,7.23,7.23
908,3,1954715.39,14,74.12,76.14,1,7.99,1,2,0.77,1,77.44,79.44,1,1,0.01,1,1,1,0,0,0,0,#NULL!,#NULL!,5.1,0,1,-1.8287
908,3,1954715.39,20,110.52,112.54,1,10.11,0.5,2,0.6,1,113.67,115.67,1,1,0,0,-1,1,0,0,0,0,#NULL!,1,8.89,0,1,-0.69
908,3,1954715.39,21,118.06,120.08,1,9.75,0.2,2,0.75,1,121.36,123.36,1,1,0,0,-1,1,0,0,0,0,#NULL!,1,8.43,0,1,0.83179
908,3,1954715.39,22,123.38,125.39,1,10.15,0.5,2,0.64,1,126.56,128.56,1,1,0,0,-1,1,0,0,0,0,#NULL!,1,8.93,0,9.872,9.872
908,3,1954715.39,23,128.58,130.59,1,9.89,0.2,1,0.4,1,131.53,133.53,1,1,0,0,-1,1,0,0,0,0,#NULL!,1,8.57,0,1,-0.59
908,3,1954715.39,24,133.54,135.56,1,7.4,0.8,1,0.45,1,136.54,138.54,1,1,0.02,1,1,1,0,0,0,0,#NULL!,#NULL!,7.4,0,1,-0.67865
908,3,1954715.39,25,138.56,140.58,1,8.19,1,2,0.7,1,141.81,143.81,1,1,0.01,1,1,1,0,0,0,0,#NULL!,#NULL!,5.3,0,1,0.99179
908,3,1954715.39,29,161.5,163.52,1,9.8,0.5,2,0.64,1,164.7,166.7,1,1,0,0,-1,1,0,0,0,0,#NULL!,1,8.58,0,1,0.68203
908,3,1954715.39,30,166.72,168.74,1,10.1,0.2,2,0.63,1,169.91,171.91,1,1,0,0,-1,1,0,0,0,0,#NULL!,1,8.78,0,10.1618,10.162
908,3,1954715.39,31,174.53,176.55,1,10.25,0.5,1,0.37,1,177.45,179.45,1,1,0,0,-1,1,0,0,0,0,#NULL!,1,9.03,0,9.132,9.132
908,3,1954715.39,32,179.46,181.48,1,8.15,1,2,0.38,1,182.4,184.4,1,1,0.01,1,1,1,0,0,0,0,#NULL!,#NULL!,5.26,0,6.9618,6.9618
908,3,1954715.39,33,184.41,186.43,1,7.05,0.8,1,0.33,1,187.3,189.3,1,1,0.02,1,1,1,0,0,0,0,#NULL!,#NULL!,7.05,0,7.1218,7.1218
908,3,1954715.39,38,214.91,216.92,1,9.97,0.5,1,0.38,1,217.84,219.84,1,1,0,0,-1,1,0,0,0,0,#NULL!,1,8.75,0,1,-2.24
908,3,1954715.39,39,219.86,221.87,1,10.07,0.2,1,0.31,1,222.71,224.71,1,1,0,0,-1,1,0,0,0,0,#NULL!,1,8.75,0,1,-0.58865
908,3,1954715.39,40,224.72,226.74,1,8.29,1,1,0.26,1,227.54,229.54,1,1,0.01,1,1,1,0,0,0,0,#NULL!,#NULL!,5.4,0,1,0.53179
908,3,1954715.39,41,229.56,231.57,1,7.96,0.8,1,0.34,1,232.44,234.44,1,1,0.01,1,1,1,0,0,0,0,#NULL!,#NULL!,7.96,0,1.022,1.022
908,3,1954715.39,45,253.81,255.82,1,9.78,0.2,2,0.96,1,257.32,259.32,1,1,0,0,-1,1,0,0,0,0,#NULL!,1,8.46,0,9.982,9.982
908,3,1954715.39,46,259.34,261.36,1,10.16,0.5,1,0.33,1,262.22,264.23,1,1,0,0,-1,1,0,0,0,0,#NULL!,1,8.94,0,9.3418,9.3418
908,3,1954715.39,47,264.24,266.26,1,8.87,0.8,1,0.26,1,267.04,269.04,1,1,0.01,0,0,1,0,0,0,0,#NULL!,#NULL!,8.87,0,7.6013,7.6013
908,3,1954715.39,52,291.85,293.87,1,10.25,0.2,1,0.3,1,294.7,296.7,1,1,0,0,-1,1,0,0,0,0,#NULL!,1,8.93,0,7.58,7.58
908,3,1954715.39,53,299.23,301.24,1,9.24,0.2,2,0.69,1,302.46,304.46,1,1,0,0,-1,1,0,0,0,0,#NULL!,1,7.92,0,6.9,6.9
908,3,1954715.39,54,304.48,306.5,1,8.13,1,2,0.67,1,307.7,309.7,1,1,0.01,1,0,1,0,0,0,0,#NULL!,#NULL!,5.24,0,1,-1.83
908,3,1954715.39,55,309.71,311.73,1,8.08,0.8,2,0.84,1,313.11,315.11,1,1,0.01,1,1,1,0,0,0,0,#NULL!,#NULL!,8.08,0,1,-0.51865
908,3,1954715.39,56,315.13,317.15,1,7.25,0.8,2,0.53,1,318.21,320.21,1,1,0.02,1,1,1,0,0,0,0,#NULL!,#NULL!,7.25,0,1,0.62179
908,3,1954715.39,60,338.63,340.65,1,9.66,0.5,2,0.76,1,341.95,343.95,1,1,0,0,-1,1,0,0,0,0,#NULL!,1,8.44,0,1.082,1.082
908,3,1954715.39,61,346.64,348.65,1,9.99,0.2,2,0.64,1,349.82,351.82,1,1,0,0,-1,1,0,0,0,0,#NULL!,1,8.67,0,1.372,1.372
908,3,1954715.39,62,351.84,353.85,1,7.09,0.8,1,0.36,1,354.74,356.74,1,1,0.02,1,1,1,0,0,0,0,#NULL!,#NULL!,7.09,0,9.662,9.662
908,3,1954715.39,63,356.75,358.77,1,8.12,1,1,0.41,1,359.71,361.71,1,1,0.01,1,1,1,0,0,0,0,#NULL!,#NULL!,5.23,0,10.7818,10.782
908,3,1954715.39,67,379.6,381.61,1,9.95,0.2,1,0.32,1,382.46,384.46,1,1,0,0,-1,1,0,0,0,0,#NULL!,1,8.63,0,7.11,7.11
908,3,1954715.39,68,384.48,386.5,1,10.47,0.5,1,0.27,1,387.3,389.3,1,1,0,0,-1,1,0,0,0,0,#NULL!,1,9.25,0,1,-0.37
908,3,1954715.39,69,389.31,391.33,1,8.33,1,2,0.53,1,392.4,394.4,1,1,0.01,1,0,1,0,0,0,0,#NULL!,#NULL!,5.44,0,1,-1.1287
908,3,1954715.39,70,394.42,396.43,1,7.22,0.8,1,0.29,1,397.25,399.25,1,1,0.02,1,1,1,0,0,0,0,#NULL!,#NULL!,7.22,0,1,0.31179
908,3,1954715.39,71,399.27,401.28,1,7.55,1,1,0.64,1,402.45,404.45,1,1,0.02,1,1,1,0,0,0,0,#NULL!,#NULL!,4.66,0,1.532,1.532
908,3,1954715.39,75,421.76,423.78,1,9.99,0.2,1,0.25,1,424.56,426.56,1,1,0,0,-1,1,0,0,0,0,#NULL!,1,8.67,0,9.712,9.712
908,3,1954715.39,76,429.38,431.39,1,9.24,0.5,1,0.29,1,432.21,434.21,1,1,0,0,-1,1,0,0,0,0,#NULL!,1,8.02,0,10.1318,10.132
908,3,1954715.39,77,434.23,436.24,1,7.92,1,1,0.3,1,437.08,439.08,1,1,0.01,1,1,1,0,0,0,0,#NULL!,#NULL!,5.03,0,8.4013,8.4013
908,3,1954715.39,78,439.09,441.11,1,8.08,1,2,0.5,1,442.14,444.14,1,1,0.01,1,1,1,0,0,0,0,#NULL!,#NULL!,5.19,0,7.6913,7.6913
910,1,201785.92,1,0.07,2.09,1,9.33,0.2,2,3.11,1,5.74,7.74,1,2,0,#NULL!,-1,1,0,0,0,0,#NULL!,1,8.02,0,7.2,7.2
910,1,201785.92,2,7.77,9.79,1,10.4,0.5,1,1.84,1,12.15,14.15,1,2,0,#NULL!,-1,1,0,0,0,0,#NULL!,1,9.26,0,1,-1.21
910,1,201785.92,7,45.45,47.47,1,9.97,0.2,1,0.74,1,48.75,50.75,1,2,0,#NULL!,-1,1,0,0,0,0,#NULL!,1,8.66,0,1,-0.088654
910,1,201785.92,8,55.28,57.3,1,9.62,0.5,2,1.43,1,59.26,61.26,1,2,0,#NULL!,-1,1,0,0,0,0,#NULL!,1,8.48,0,1.4418,1.4418
910,1,201785.92,9,61.28,63.3,1,8.15,0.8,2,0.97,1,64.8,66.8,1,2,0,#NULL!,1,1,0,0,0,0,#NULL!,#NULL!,4.71,0,1.502,1.502
910,1,201785.92,10,66.82,68.83,1,7.82,0.2,1,1.17,1,70.53,72.53,1,2,0,#NULL!,1,1,0,0,0,0,#NULL!,#NULL!,6.51,0,10.142,10.142
910,1,201785.92,15,104.41,106.43,1,9.25,0.2,2,1.26,1,108.23,110.23,1,2,0,#NULL!,-1,1,0,0,0,0,#NULL!,1,7.94,0,7.92,7.92
910,1,201785.92,16,110.25,112.27,1,10.24,0.2,1,0.81,1,113.62,115.62,1,2,0,#NULL!,-1,1,0,0,0,0,#NULL!,1,8.93,0,7.7113,7.7113
910,1,201785.92,17,119.09,121.11,1,8.13,1,1,1.81,1,123.46,125.46,1,2,0,#NULL!,0,1,0,0,0,0,#NULL!,#NULL!,7.49,0,1,-1.28
910,1,201785.92,18,125.48,127.49,1,7.98,0.5,1,1.39,1,129.43,131.43,1,2,0,#NULL!,1,1,0,0,0,0,#NULL!,#NULL!,6.84,0,0.4218,0.42179
910,1,201785.92,19,131.44,133.46,1,7.25,0.2,1,1.06,1,135.06,137.06,1,2,0,#NULL!,1,1,0,0,0,0,#NULL!,#NULL!,5.94,0,1.332,1.332
910,1,201785.92,20,137.08,139.09,0,-1.35,0.8,1,0.78,1,140.41,142.41,1,2,0,#NULL!,-1,0,0,0.02,1,0,0,#NULL!,4.79,0,10.432,10.432
910,1,201785.92,24,164.01,166.02,1,10.75,1,1,1.39,1,167.94,169.94,1,2,0,#NULL!,-1,1,0,0,0,0,#NULL!,1,10.11,0,10.0118,10.012
910,1,201785.92,25,173.13,175.14,1,10.15,0.8,1,1.62,1,177.29,179.29,1,2,0,#NULL!,-1,1,0,0,0,0,#NULL!,1,6.71,0,7.0513,7.0513
910,1,201785.92,26,179.31,181.33,1,9.89,0.2,2,0.91,1,182.78,184.78,1,2,0,#NULL!,-1,1,0,0,0,0,#NULL!,1,8.58,0,7.1913,7.1913
910,1,201785.92,27,184.8,186.81,1,7.4,1,2,0.78,1,188.13,190.13,1,2,0,#NULL!,1,1,0,0,1,0,#NULL!,#NULL!,6.76,0,7.63,7.63
910,1,201785.92,28,193.33,195.35,1,7.19,0.2,1,0.98,1,196.86,198.86,1,2,0,#NULL!,1,1,0,0,0,0,#NULL!,#NULL!,5.88,0,1,-1.54
910,1,201785.92,32,219.42,221.44,1,9.8,0.5,1,1.56,1,223.54,225.54,1,2,0,#NULL!,-1,1,0,0,0,0,#NULL!,1,8.66,0,1,-0.43865
910,1,201785.92,33,225.55,227.57,1,10.1,0.5,1,0.94,1,229.04,231.04,1,2,0,#NULL!,-1,1,0,0,0,0,#NULL!,1,8.96,0,1,0.34135
910,1,201785.92,34,231.05,233.07,1,10.25,0.8,2,1.16,1,234.77,236.77,1,2,0,#NULL!,-1,1,0,0,0,0,#NULL!,1,6.81,0,1.392,1.392
910,1,201785.92,35,236.79,238.8,1,8.15,0.2,1,1.94,1,241.27,243.27,1,2,0,#NULL!,1,1,0,0,0,0,#NULL!,#NULL!,6.84,0,9.9118,9.9118
910,1,201785.92,36,243.29,245.3,1,7.05,0.5,2,2.5,1,248.34,250.34,1,2,0,#NULL!,1,1,0,0,1,0,#NULL!,#NULL!,5.91,0,9.872,9.872
910,1,201785.92,41,281.55,283.56,1,9.05,0.5,2,1.34,1,285.45,287.45,1,2,0,#NULL!,-1,1,0,0,0,0,#NULL!,1,7.91,0,7.75,7.75
910,1,201785.92,42,287.46,289.48,1,9.97,0.2,2,0.7,1,290.71,292.71,1,2,0,#NULL!,-1,1,0,0,0,0,#NULL!,1,8.66,0,7.6813,7.6813
910,1,201785.92,43,292.73,294.75,1,8.29,0.5,2,1.17,1,296.45,298.45,1,2,0,#NULL!,1,1,0,0,0,0,#NULL!,#NULL!,7.15,0,1,-1.58
910,1,201785.92,48,325.18,327.19,1,9.78,0.5,1,1.11,1,328.84,330.84,1,2,0,#NULL!,-1,1,0,0,0,0,#NULL!,1,8.64,0,1,0.63179
910,1,201785.92,49,334.42,336.44,1,10.16,0.8,2,1.2,1,338.17,340.17,1,2,0,#NULL!,-1,1,0,0,0,0,#NULL!,1,6.72,0,1.212,1.212
910,1,201785.92,50,340.19,342.21,1,7.34,0.5,2,1.75,1,344.49,346.49,1,2,0,#NULL!,1,1,0,0,0,0,#NULL!,#NULL!,6.2,0,9.122,9.122
910,1,201785.92,51,346.51,348.52,1,8.08,1,1,0.98,1,350.04,352.04,1,2,0,#NULL!,1,1,0,0,0,0,#NULL!,#NULL!,7.44,0,9.9118,9.9118
910,1,201785.92,52,352.06,354.07,0,-1.46,0.8,1,0.94,1,355.54,357.54,1,2,0,#NULL!,-1,0,0,0.01,1,0,0,#NULL!,4.9,0,7.2013,7.2013
910,1,201785.92,57,386.45,388.47,1,10.22,0.5,1,1.4,1,390.41,392.41,1,2,0,#NULL!,-1,1,0,0,0,0,#NULL!,1,9.08,0,6.9,6.9
910,1,201785.92,58,392.42,394.44,1,9.48,0.2,1,0.94,1,395.91,397.91,1,2,0,#NULL!,-1,1,0,0,0,0,#NULL!,1,8.17,0,1,-1.47
910,1,201785.92,59,397.92,399.94,1,7.92,1,2,0.79,1,401.26,403.26,1,2,0,#NULL!,1,1,0,0,0,0,#NULL!,#NULL!,7.28,0,1,-0.81865
910,1,201785.92,60,403.27,405.29,1,8.12,0.8,1,0.85,1,406.68,408.68,1,2,0,#NULL!,1,1,0,0,0,0,#NULL!,#NULL!,4.68,0,1,0.71179
910,1,201785.92,61,408.69,410.71,0,-1.67,0.8,1,1.36,1,412.59,414.59,1,2,0,#NULL!,-1,0,0,0.01,1,0,0,#NULL!,5.11,0,1,0.87203
910,1,201785.92,64,432.57,434.59,1,9.66,0.5,1,3.42,1,438.54,440.54,1,2,0,#NULL!,-1,1,0,0,0,0,#NULL!,1,8.52,0,1.422,1.422
910,1,201785.92,65,440.56,442.57,1,9.99,0.2,1,0.71,1,443.81,445.81,1,2,0,#NULL!,-1,1,0,0,0,0,#NULL!,1,8.68,0,9.962,9.962
910,1,201785.92,67,451.38,453.39,1,8.12,1,2,0.86,1,454.78,456.78,1,2,0,#NULL!,1,1,0,0,0,0,#NULL!,#NULL!,7.48,0,9.1318,9.1318
910,1,201785.92,72,481.52,483.54,1,9.95,0.2,1,1.18,1,485.26,487.26,1,2,0,#NULL!,-1,1,0,0,0,0,#NULL!,1,8.64,0,7.5013,7.5013
910,1,201785.92,73,491.71,493.72,1,10.47,0.5,1,1.31,1,495.57,497.57,1,2,0,#NULL!,-1,1,0,0,0,0,#NULL!,1,9.33,0,7.84,7.84
910,1,201785.92,74,497.59,499.61,1,8.33,1,1,0.93,1,501.07,503.07,1,2,0,#NULL!,1,1,0,0,0,0,#NULL!,#NULL!,7.69,0,1,-1.4
910,1,201785.92,76,508.82,510.84,1,7.55,1,1,1.15,1,512.52,514.52,1,2,0,#NULL!,1,1,0,0,0,0,#NULL!,#NULL!,6.91,0,1,0.20135
910,1,201785.92,77,514.54,516.56,0,-1.55,0.8,2,1.15,1,518.24,520.24,1,2,0,#NULL!,-1,0,0,0.01,1,0,0,#NULL!,4.99,0,1.332,1.332
910,1,201785.92,80,537.48,539.5,1,9.99,0.2,1,1.18,1,541.22,543.22,1,2,0,#NULL!,-1,1,0,0,0,0,#NULL!,1,8.68,0,10.012,10.012
910,3,203252.65,1,0.04,2.07,0,-1.77,1,1,1.29,1,3.89,5.89,1,2,0,#NULL!,-1,0,0,0,1,0,0,#NULL!,4.67,0,10.1918,10.192
910,3,203252.65,4,21.1,23.12,1,9.4,0.2,1,1.06,1,24.72,26.72,1,2,0,#NULL!,-1,1,0,0,0,0,#NULL!,1,8.08,0,7.01,7.01
910,3,203252.65,5,26.75,28.77,1,9.38,0.5,2,1.42,1,30.72,32.72,1,2,0,#NULL!,-1,1,0,0,0,0,#NULL!,1,8.16,0,1,-2.27
910,3,203252.65,7,39.09,41.1,0,-2,1,1,0.93,1,42.57,44.57,1,2,0,#NULL!,-1,0,0,0,1,0,0,#NULL!,4.9,0,1,-2.09
910,3,203252.65,11,65.86,67.88,1,9.99,0.2,2,1.27,1,69.68,71.68,1,2,0,#NULL!,-1,1,0,0,0,0,#NULL!,1,8.67,0,1,-0.35865
910,3,203252.65,12,74.71,76.73,1,9.61,0.5,1,1.04,1,78.32,80.32,1,2,0,#NULL!,-1,1,0,0,0,0,#NULL!,1,8.39,0,1,1.2218
910,3,203252.65,13,80.33,82.35,1,8.12,0.8,1,0.85,1,83.73,85.73,1,2,0,#NULL!,0,1,0,0,0,0,#NULL!,#NULL!,4.76,0,9.282,9.282
910,3,203252.65,14,85.75,87.77,1,7.99,1,2,0.72,1,89.02,91.02,1,2,0,#NULL!,1,1,0,0,0,0,#NULL!,#NULL!,5.1,0,9.1718,9.1718
910,3,203252.65,15,91.03,93.05,0,-1.86,0.8,2,0.84,1,94.42,96.42,1,2,0,#NULL!,-1,0,0,0.01,1,0,0,#NULL!,5.22,0,6.8813,6.8813
910,3,203252.65,20,125.72,127.74,1,10.11,0.5,2,1,1,129.27,131.27,1,2,0,#NULL!,-1,1,0,0,0,0,#NULL!,1,8.89,0,1,-2.32
910,3,203252.65,21,135.14,137.16,1,9.75,0.2,2,1.15,1,138.84,140.84,1,2,0,#NULL!,-1,1,0,0,0,0,#NULL!,1,8.43,0,1,-0.91865
910,3,203252.65,22,140.86,142.87,1,10.15,0.5,2,0.91,1,144.32,146.32,1,2,0,#NULL!,-1,1,0,0,0,0,#NULL!,1,8.93,0,0.712,0.71203
910,3,203252.65,23,146.34,148.36,1,9.89,0.2,1,2.08,1,150.97,152.97,1,2,0,#NULL!,-1,1,0,0,0,0,#NULL!,1,8.57,0,1,1.5418
910,3,203252.65,25,159.62,161.64,1,8.19,1,2,1.17,1,163.34,165.34,1,2,0,#NULL!,1,1,0,0,0,0,#NULL!,#NULL!,5.3,0,9.872,9.872
910,3,203252.65,29,185.66,187.68,1,9.8,0.5,2,1.26,1,189.48,191.48,1,2,0,#NULL!,-1,1,0,0,0,0,#NULL!,1,8.58,0,9.4018,9.4018
910,3,203252.65,30,191.5,193.51,1,10.1,0.2,2,0.63,1,194.68,196.68,1,2,0,#NULL!,-1,1,0,0,0,0,#NULL!,1,8.78,0,7.8413,7.8413
910,3,203252.65,31,199.18,201.19,1,10.25,0.5,1,1.06,1,202.79,204.8,1,2,0,#NULL!,-1,1,0,0,0,0,#NULL!,1,9.03,0,7.67,7.67
910,3,203252.65,32,204.81,206.83,1,8.15,1,2,1.54,1,208.89,210.9,1,2,0,#NULL!,1,1,0,0,0,0,#NULL!,#NULL!,5.26,0,1,-2.1387
910,3,203252.65,38,244.4,246.42,1,9.97,0.5,1,1.29,1,248.25,250.25,1,2,0,#NULL!,-1,1,0,0,0,0,#NULL!,1,8.75,0,1,-0.39865
910,3,203252.65,39,250.27,252.29,1,10.07,0.2,1,0.64,1,253.45,255.45,1,2,0,#NULL!,-1,1,0,0,0,0,#NULL!,1,8.75,0,1,0.24179
910,3,203252.65,40,255.47,257.49,1,8.29,1,1,1.42,1,259.44,261.44,1,2,0,#NULL!,1,1,0,0,0,0,#NULL!,#NULL!,5.4,0,1,1.4618
910,3,203252.65,45,288.15,290.16,1,9.78,0.2,2,1.94,1,292.63,294.63,1,2,0,#NULL!,-1,1,0,0,0,0,#NULL!,1,8.46,0,1,0.87203
910,3,203252.65,46,294.65,296.66,1,10.16,0.5,1,0.95,1,298.15,300.15,1,2,0,#NULL!,-1,1,0,0,0,0,#NULL!,1,8.94,0,9.9018,9.9018
910,3,203252.65,47,300.16,302.18,1,8.87,0.8,1,1.11,1,303.83,305.83,1,2,0,#NULL!,0,1,0,0,0,0,#NULL!,#NULL!,5.51,0,9.632,9.632
910,3,203252.65,52,330.78,332.8,1,10.25,0.2,1,0.74,1,334.07,336.07,1,2,0,#NULL!,-1,1,0,0,0,0,#NULL!,1,8.93,0,9.9418,9.9418
910,3,203252.65,53,339.63,341.64,1,9.24,0.2,2,0.73,1,342.91,344.91,1,2,0,#NULL!,-1,1,0,0,0,0,#NULL!,1,7.92,0,9.772,9.772
910,3,203252.65,54,344.93,346.95,1,8.13,1,2,0.79,1,348.28,350.28,1,2,0,#NULL!,0,1,0,0,0,0,#NULL!,#NULL!,5.24,0,7.1213,7.1213
910,3,203252.65,55,350.29,352.31,1,8.08,0.8,2,1.23,1,354.08,356.08,1,2,0,#NULL!,1,1,0,0,0,0,#NULL!,#NULL!,4.72,0,7.87,7.87
910,3,203252.65,57,361.9,363.91,0,-1.67,0.8,2,0.83,1,365.28,367.28,1,2,0,#NULL!,-1,0,0,0.01,1,0,0,#NULL!,5.03,0,1,-0.49865
910,3,203252.65,60,382.35,384.36,1,9.66,0.5,2,0.98,1,385.88,387.88,1,2,0,#NULL!,-1,1,0,0,0,0,#NULL!,1,8.44,0,1,-0.76
910,3,203252.65,61,390.32,392.33,1,9.99,0.2,2,1.03,1,393.9,395.9,1,2,0,#NULL!,-1,1,0,0,0,0,#NULL!,1,8.67,0,1,1.672
910,3,203252.65,63,401.88,403.9,1,8.12,1,1,0.94,1,405.36,407.36,1,2,0,#NULL!,1,1,0,0,0,0,#NULL!,#NULL!,5.23,0,9.5918,9.5918
910,3,203252.65,67,426.43,428.44,1,9.95,0.2,1,1.24,1,430.21,432.21,1,2,0,#NULL!,-1,1,0,0,0,0,#NULL!,1,8.63,0,9.982,9.982
910,3,203252.65,68,432.23,434.24,1,10.47,0.5,1,0.56,1,435.33,437.33,1,2,0,#NULL!,-1,1,0,0,0,0,#NULL!,1,9.25,0,10.0418,10.042
910,3,203252.65,69,437.35,439.36,1,8.33,1,2,0.67,1,440.56,442.56,1,2,0,#NULL!,0,1,0,0,0,0,#NULL!,#NULL!,5.44,0,7.83,7.83
910,3,203252.65,71,448.23,450.25,1,7.55,1,1,1.51,1,452.28,454.28,1,2,0,#NULL!,1,1,0,0,0,0,#NULL!,#NULL!,4.66,0,6.7713,6.7713
910,3,203252.65,72,454.3,456.32,0,-1.55,0.8,1,0.68,1,457.53,459.53,1,2,0,#NULL!,-1,0,0,0.01,1,0,0,#NULL!,4.91,0,1,-1.4287
910,3,203252.65,75,475.91,477.93,1,9.99,0.2,1,0.63,1,479.1,481.1,1,2,0,#NULL!,-1,1,0,0,0,0,#NULL!,1,8.67,0,1,-1.62
910,3,203252.65,76,484.64,486.65,1,9.24,0.5,1,0.75,1,487.94,489.94,1,2,0,#NULL!,-1,1,0,0,0,0,#NULL!,1,8.02,0,1,0.54179
910,3,203252.65,77,489.96,491.97,1,7.92,1,1,0.95,1,493.46,495.46,1,2,0,#NULL!,1,1,0,0,0,0,#NULL!,#NULL!,5.03,0,1,1.572
910,3,203252.65,78,495.47,497.49,1,8.08,1,2,0.79,1,498.82,500.82,1,2,0,#NULL!,1,1,0,0,0,0,#NULL!,#NULL!,5.19,0,9.7618,9.7618
911,1,3918.04,1,0.12,2.15,1,9.33,0.2,2,2.22,1,4.92,6.92,1,1,0.04,0,-1,1,0,0.02,0,0,#NULL!,1,8.41,0,9.952,9.952
911,1,3918.04,2,6.95,8.96,1,10.4,0.5,1,3.08,1,12.58,14.58,1,1,0.04,0,-1,1,0,0.01,0,0,#NULL!,1,9.22,0,7.97,7.97
911,1,3918.04,3,14.61,16.65,1,7.79,0.8,2,2.57,1,19.75,21.75,1,1,0.34,1,1,1,0,0.13,0,0,#NULL!,#NULL!,7.49,0,7.6813,7.6813
911,1,3918.04,4,21.78,23.79,0,-2,1,2,1.16,1,25.49,27.49,1,1,0.03,0,-1,0,0,0.02,0,0,0,#NULL!,9.67,0,1,-1.17
911,1,3918.04,7,51.27,53.28,1,9.97,0.2,1,1.43,1,55.25,57.25,1,1,0.03,0,-1,1,0,0.01,0,0,#NULL!,1,9.05,0,1,0.24135
911,1,3918.04,8,61.97,63.99,1,9.62,0.5,2,1.27,1,65.79,67.79,1,1,0.06,0,-1,1,0,0.02,0,0,#NULL!,1,8.44,0,1.5218,1.5218
911,1,3918.04,9,67.8,69.82,0,8.15,0.8,2,2.51,1,72.85,74.85,1,1,0.29,1,1,1,1,0.1,0,0,#NULL!,#NULL!,7.85,0,9.662,9.662
911,1,3918.04,10,74.87,76.89,1,7.82,0.2,1,1.46,1,78.89,80.89,1,1,0.08,0,1,1,0,0.04,0,0,#NULL!,#NULL!,6.9,0,9.9518,9.9518
911,1,3918.04,11,85.82,87.84,0,-0.2,1,2,1.14,1,89.52,91.52,1,1,0.08,0,0,0,0,0.07,0,0,#NULL!,#NULL!,7.87,0,8.5913,8.5913
911,1,3918.04,15,120.32,122.34,1,9.25,0.2,2,1.21,1,124.09,126.09,1,1,0.04,0,-1,1,0,0.02,0,0,#NULL!,1,8.33,0,1,-0.78
911,1,3918.04,16,126.1,128.12,1,10.24,0.2,1,1.74,1,130.4,132.4,1,1,0.02,0,-1,1,0,0.01,0,0,#NULL!,1,9.32,0,1,0.34135
911,1,3918.04,18,146.28,148.3,1,7.98,0.5,1,1.55,1,150.38,152.38,1,1,0.13,0,1,1,0,0.04,0,0,#NULL!,#NULL!,6.8,0,1,0.63179
911,1,3918.04,19,152.4,154.42,1,7.25,0.2,1,1.52,1,156.47,158.47,1,1,0.1,0,1,1,0,0.05,0,0,#NULL!,#NULL!,6.33,0,1,0.66203
911,1,3918.04,21,169.34,171.36,0,-0.85,1,2,2.1,1,173.99,175.99,1,1,0.06,0,-1,0,0,0.05,0,0,0,#NULL!,8.52,0,10.132,10.132
911,1,3918.04,25,199.34,201.36,1,10.15,0.8,1,1.9,1,203.79,205.79,1,1,0.12,0,-1,1,0,0.03,0,0,#NULL!,1,9.85,0,9.122,9.122
911,1,3918.04,26,205.81,207.83,1,9.89,0.2,2,1.79,1,210.16,212.16,1,1,0.03,0,-1,1,0,0.01,0,0,#NULL!,1,8.97,0,7.81,7.81
911,1,3918.04,28,223.68,225.69,1,7.19,0.2,1,1.71,1,227.94,229.94,1,1,0.1,0,1,1,0,0.05,0,0,#NULL!,#NULL!,6.27,0,7.8013,7.8013
911,1,3918.04,30,235.53,237.54,0,-0.44,1,1,1.13,1,239.21,241.21,1,1,0.07,0,0,0,0,0.06,0,0,#NULL!,#NULL!,8.11,0,6.9713,6.9713
911,1,3918.04,32,257.63,259.65,1,9.8,0.5,1,1.42,1,261.6,263.6,1,1,0.06,0,-1,1,0,0.02,0,0,#NULL!,1,8.62,0,1,-1.9487
911,1,3918.04,33,263.61,265.63,1,10.1,0.5,1,2.1,1,268.27,270.27,1,1,0.05,0,-1,1,0,0.01,0,0,#NULL!,1,8.92,0,1,0.63179
911,1,3918.04,34,270.28,272.3,1,10.25,0.8,2,2.62,1,275.45,277.45,1,1,0.11,0,-1,1,0,0.03,0,0,#NULL!,1,9.95,0,1,1.5318
911,1,3918.04,35,277.47,279.48,1,8.15,0.2,1,1.59,1,281.6,283.6,1,1,0.07,0,1,1,0,0.03,0,0,#NULL!,#NULL!,7.23,0,9.4518,9.4518
911,1,3918.04,38,300.87,302.89,0,-1.3,1,2,1.25,1,304.67,306.67,1,1,0.05,0,-1,0,0,0.04,0,0,0,#NULL!,8.97,0,9.872,9.872
911,1,3918.04,41,321.76,323.77,1,9.05,0.5,2,2.7,1,327.01,329.01,1,1,0.08,0,-1,1,0,0.02,0,0,#NULL!,1,7.87,0,6.8113,6.8113
911,1,3918.04,42,329.02,331.04,1,9.97,0.2,2,1.86,1,333.42,335.42,1,1,0.03,0,-1,1,0,0.01,0,0,#NULL!,1,9.05,0,7.8,7.8
911,1,3918.04,43,335.44,337.46,1,8.29,0.5,2,1.19,1,339.19,341.19,1,1,0.12,0,1,1,0,0.04,0,0,#NULL!,#NULL!,7.11,0,1,-1.87
911,1,3918.04,44,341.21,343.22,1,7.96,0.8,2,0.98,1,344.74,346.74,1,1,0.32,1,1,1,0,0.12,0,0,#NULL!,#NULL!,7.66,0,1,-0.79865
911,1,3918.04,45,349.94,351.96,0,-1.55,1,1,1,1,353.49,355.49,1,1,0.04,0,-1,0,0,0.03,0,0,0,#NULL!,9.22,0,1,0.80203
911,1,3918.04,48,367.05,369.06,1,9.78,0.5,1,0.92,1,370.51,372.51,1,1,0.06,0,-1,1,0,0.02,0,0,#NULL!,1,8.6,0,9.832,9.832
911,1,3918.04,49,378.02,380.04,1,10.16,0.8,2,2.33,1,382.9,384.9,1,1,0.12,0,-1,1,0,0.03,0,0,#NULL!,1,9.86,0,10.2618,10.262
911,1,3918.04,57,435.92,437.93,1,10.22,0.5,1,2.67,1,441.14,443.14,1,1,0.05,0,-1,1,0,0.01,0,0,#NULL!,1,9.04,0,8.01,8.01
911,1,3918.04,58,443.15,445.17,1,9.48,0.2,1,2.48,1,448.19,450.19,1,1,0.03,0,-1,1,0,0.01,0,0,#NULL!,1,8.56,0,6.9413,6.9413
911,1,3918.04,60,459.29,461.3,1,8.12,0.8,1,1.83,1,463.67,465.67,1,1,0.3,1,1,1,0,0.11,0,0,#NULL!,#NULL!,7.82,0,7.23,7.23
911,1,3918.04,64,493.54,495.55,1,9.66,0.5,1,3.19,1,499.29,501.29,1,1,0.06,0,-1,1,0,0.02,0,0,#NULL!,1,8.48,0,1,-1.8287
911,1,3918.04,65,501.3,503.32,1,9.99,0.2,1,1.99,1,505.85,507.85,1,1,0.03,0,-1,1,0,0.01,0,0,#NULL!,1,9.07,0,1,-0.69
911,1,3918.04,66,507.87,509.89,1,7.09,0.8,2,2.45,1,512.87,514.87,1,1,0.45,1,1,1,0,0.18,1,0,#NULL!,#NULL!,6.79,0,1,0.83179
911,1,3918.04,68,525.69,527.71,0,-0.46,1,1,1.19,1,529.43,531.43,1,1,0.07,0,-1,0,0,0.06,0,0,0,#NULL!,8.13,0,9.872,9.872
911,1,3918.04,72,552.11,554.13,1,9.95,0.2,1,0.96,1,555.63,557.63,1,1,0.03,0,-1,1,0,0.01,0,0,#NULL!,1,9.03,0,9.0318,9.0318
911,1,3918.04,73,562.95,564.97,1,10.47,0.5,1,1.4,1,566.9,568.9,1,1,0.04,0,-1,1,0,0.01,0,0,#NULL!,1,9.29,0,7.6,7.6
911,1,3918.04,75,576.3,578.32,1,7.22,0.8,1,1.26,1,580.12,582.12,1,1,0.43,1,1,1,0,0.17,1,0,#NULL!,#NULL!,6.92,0,7.76,7.76
911,1,3918.04,78,601.45,603.47,0,-0.37,1,2,1.1,1,605.1,607.1,1,1,0.07,0,0,0,0,0.06,0,0,#NULL!,#NULL!,8.04,0,1,-1.38
911,1,3918.04,80,613.87,615.88,1,9.99,0.2,1,2.97,1,619.38,621.38,1,1,0.03,0,-1,1,0,0.01,0,0,#NULL!,1,9.07,0,1,-0.62865
911,3,5406.34,1,0.05,2.08,0,-1.77,1,1,1.85,1,4.46,6.47,1,1,0.04,0,-1,0,0,0.03,0,0,0,#NULL!,7.58,0,9.352,9.352
911,3,5406.34,2,6.5,8.51,0,-0.08,0.8,1,0.71,1,9.75,11.75,1,1,0.17,0,0,0,0,0.27,1,0,#NULL!,#NULL!,7.12,0,9.7718,9.7718
911,3,5406.34,4,22.26,24.27,1,9.4,0.2,1,1.28,1,26.09,28.09,1,1,0.04,0,-1,1,0,0.02,0,0,#NULL!,1,7.59,0,6.9818,6.9818
911,3,5406.34,5,28.11,30.12,1,9.38,0.5,2,0.86,1,31.52,33.52,1,1,0.07,0,-1,1,0,0.02,0,0,#NULL!,1,8.01,0,7.0118,7.0118
911,3,5406.34,7,39.11,41.12,0,-2,1,1,0.42,1,42.07,44.07,1,1,0.03,0,-1,0,0,0.02,0,0,0,#NULL!,7.81,0,1,-1.24
911,3,5406.34,8,52.08,54.09,0,-0.64,0.8,1,0.38,1,55.01,57.01,1,1,0.13,0,0,0,0,0.2,1,0,#NULL!,#NULL!,7.68,0,1,-0.58865
911,3,5406.34,11,72.19,74.21,1,9.99,0.2,2,1.68,1,76.43,78.43,1,1,0.03,0,-1,1,0,0.01,0,0,#NULL!,1,8.18,0,1,0.20179
911,3,5406.34,12,84.87,86.88,1,9.61,0.5,1,2.77,1,90.18,92.18,1,1,0.06,0,-1,1,0,0.02,0,0,#NULL!,1,8.24,0,1.5318,1.5318
911,3,5406.34,15,103.51,105.53,0,-1.86,0.8,2,0.83,1,106.9,108.9,1,1,0.08,0,-1,0,0,0.1,0,0,0,#NULL!,8.9,0,1,1.022
911,3,5406.34,16,111.36,113.37,0,-0.12,0.8,2,0.97,1,114.87,116.87,1,1,0.17,0,0,0,0,0.26,1,0,#NULL!,#NULL!,7.16,0,9.662,9.662
911,3,5406.34,20,139.51,141.53,1,10.11,0.5,2,0.79,1,142.87,144.87,1,1,0.05,0,-1,1,0,0.01,0,0,#NULL!,1,8.74,0,9.7818,9.7818
911,3,5406.34,21,149.82,151.83,1,9.75,0.2,2,1.41,1,153.78,155.78,1,1,0.03,0,-1,1,0,0.01,0,0,#NULL!,1,7.94,0,7.11,7.11
911,3,5406.34,22,155.8,157.81,1,10.15,0.5,2,0.77,1,159.11,161.11,1,1,0.05,0,-1,1,0,0.01,0,0,#NULL!,1,8.78,0,1,-1.83
911,3,5406.34,23,161.13,163.15,1,9.89,0.2,1,0.5,1,164.18,166.18,1,1,0.03,0,-1,1,0,0.01,0,0,#NULL!,1,8.08,0,1,0.48135
911,3,5406.34,26,181.63,183.65,0,-0.22,0.8,1,1.1,1,185.28,187.28,1,1,0.16,0,-1,0,0,0.25,1,0,0,#NULL!,7.26,0,1,0.62179
911,3,5406.34,29,198.33,200.35,1,9.8,0.5,2,1.54,1,202.42,204.42,1,1,0.06,0,-1,1,0,0.02,0,0,#NULL!,1,8.43,0,1,0.99179
911,3,5406.34,30,204.43,206.45,1,10.1,0.2,2,1.23,1,208.22,210.22,1,1,0.03,0,-1,1,0,0.01,0,0,#NULL!,1,8.29,0,1.652,1.652
911,3,5406.34,31,216.73,218.74,1,10.25,0.5,1,0.55,1,219.83,221.83,1,1,0.04,0,-1,1,0,0.01,0,0,#NULL!,1,8.88,0,9.982,9.982
911,3,5406.34,34,237.49,239.51,0,-1.15,0.8,2,1.89,1,241.94,243.94,1,1,0.11,0,-1,0,0,0.15,1,0,0,#NULL!,8.19,0,9.3418,9.3418
911,3,5406.34,35,243.96,245.98,0,-1.3,1,1,0.68,1,247.19,249.19,1,1,0.05,0,-1,0,0,0.04,0,0,0,#NULL!,7.11,0,7.6013,7.6013
911,3,5406.34,38,265.3,267.32,1,9.97,0.5,1,0.85,1,268.7,270.7,1,1,0.05,0,-1,1,0,0.01,0,0,#NULL!,1,8.6,0,8.58,8.58
911,3,5406.34,39,270.72,272.73,1,10.07,0.2,1,2.08,1,275.35,277.35,1,1,0.03,0,-1,1,0,0.01,0,0,#NULL!,1,8.26,0,6.9413,6.9413
911,3,5406.34,42,293.71,295.73,0,-0.85,1,1,0.98,1,297.25,299.25,1,1,0.06,0,-1,0,0,0.05,0,0,0,#NULL!,6.66,0,1,-0.69
911,3,5406.34,43,299.27,301.28,0,0.52,0.8,1,1.64,1,303.45,305.45,1,1,0.23,1,0,0,0,0.36,1,0,#NULL!,#NULL!,6.52,0,1,0.27135
911,3,5406.34,45,313.62,315.63,1,9.78,0.2,2,1.22,1,317.39,319.39,1,1,0.03,0,-1,1,0,0.01,0,0,#NULL!,1,7.97,0,1,0.89203
911,3,5406.34,46,319.4,321.42,1,10.16,0.5,1,0.44,1,322.39,324.39,1,1,0.05,0,-1,1,0,0.01,0,0,#NULL!,1,8.79,0,9.222,9.222
911,3,5406.34,48,329.75,331.77,0,-0.46,1,1,0.75,1,333.05,335.05,1,1,0.07,0,-1,0,0,0.06,0,0,0,#NULL!,6.27,0,9.9718,9.9718
911,3,5406.34,49,340.81,342.82,0,0.62,0.8,2,1.47,1,344.84,346.84,1,1,0.24,1,0,0,0,0.38,1,0,#NULL!,#NULL!,6.42,0,7.8813,7.8813
911,3,5406.34,52,361.54,363.56,1,10.25,0.2,1,1.54,1,365.63,367.63,1,1,0.02,0,-1,1,0,0.01,0,0,#NULL!,1,8.44,0,7.6913,7.6913
911,3,5406.34,53,373.62,375.63,1,9.24,0.2,2,1.01,1,377.16,379.16,1,1,0.04,0,-1,1,0,0.02,0,0,#NULL!,1,7.43,0,1,-1.0887
911,3,5406.34,57,397.42,399.43,0,-1.67,0.8,2,0.86,1,400.83,402.83,1,1,0.08,0,-1,0,0,0.12,0,0,0,#NULL!,8.71,0,1.4418,1.4418
911,3,5406.34,60,419.28,421.29,1,9.66,0.5,2,0.78,1,422.61,424.61,1,1,0.06,0,-1,1,0,0.02,0,0,#NULL!,1,8.29,0,1.822,1.822
911,3,5406.34,61,430.46,432.47,1,9.99,0.2,2,0.95,1,433.96,435.96,1,1,0.03,0,-1,1,0,0.01,0,0,#NULL!,1,8.18,0,10.7818,10.782
911,3,5406.34,64,451.9,453.91,1,-1.55,1,2,0.83,1,455.28,457.28,1,1,0.04,0,-1,0,1,0.03,0,0,1,#NULL!,7.36,0,9.402,9.402
911,3,5406.34,65,457.29,459.31,0,-0.52,0.8,2,0.92,1,460.76,462.76,1,1,0.14,0,0,0,0,0.21,1,0,#NULL!,#NULL!,7.56,0,7.94,7.94
911,3,5406.34,67,468.16,470.18,1,9.95,0.2,1,1.48,1,472.2,474.2,1,1,0.03,0,-1,1,0,0.01,0,0,#NULL!,1,8.14,0,7.9613,7.9613
911,3,5406.34,68,474.21,476.23,1,10.47,0.5,1,1.8,1,478.56,480.56,1,1,0.04,0,-1,1,0,0.01,0,0,#NULL!,1,9.1,0,1,-0.37
911,3,5406.34,72,497.8,499.81,0,-1.55,0.8,1,1.87,1,502.21,504.21,1,1,0.09,0,-1,0,0,0.12,0,0,0,#NULL!,8.59,0,1,-0.12865
911,3,5406.34,75,520.34,522.36,1,9.99,0.2,1,0.54,1,523.44,525.44,1,1,0.03,0,-1,1,0,0.01,0,0,#NULL!,1,8.18,0,1,0.31179
911,3,5406.34,76,538.24,540.26,0,9.24,0.5,1,1.41,1,542.21,544.21,1,1,0.07,0,-1,1,1,0.02,0,0,#NULL!,0,7.87,0,1.532,1.532
911,3,5406.34,79,558.41,560.43,0,-1.06,1,1,1.06,1,562.03,564.03,1,1,0.05,0,-1,0,0,0.04,0,0,0,#NULL!,6.87,0,9.9018,9.9018
911,3,5406.34,80,564.04,566.06,0,-0.35,0.8,2,0.77,1,567.36,569.36,1,1,0.15,0,0,0,0,0.23,1,0,#NULL!,#NULL!,7.39,0,9.452,9.452
912,1,349139.34,1,0.09,2.12,1,9.33,0.2,2,1.14,1,3.82,5.82,1,1,0,0,-1,1,0,0,0,0,#NULL!,1,8.02,0,9.0418,9.0418
912,1,349139.34,2,5.85,7.87,1,10.4,0.5,1,2.87,1,11.27,13.27,1,1,0,0,-1,1,0,0,0,0,#NULL!,1,9.26,0,7.5813,7.5813
912,1,349139.34,4,22.41,24.43,0,-2,1,2,1.07,1,26.03,28.03,1,1,0,0,-1,0,0,0,0,0,0,#NULL!,6.11,0,7.7413,7.7413
912,1,349139.34,7,45.36,47.38,1,9.97,0.2,1,0.85,1,48.76,50.76,1,1,0,0,-1,1,0,0,0,0,#NULL!,1,8.66,0,7.3,7.3
912,1,349139.34,8,54.66,56.68,1,9.62,0.5,2,1.06,1,58.26,60.26,1,1,0,0,-1,1,0,0,0,0,#NULL!,1,8.48,0,1,-2.28
912,1,349139.34,9,60.28,62.29,1,8.15,0.8,2,0.81,1,63.63,65.63,1,1,0,0,1,1,0,0,0,0,#NULL!,#NULL!,4.71,0,1,0.42179
912,1,349139.34,10,65.64,67.66,1,7.82,0.2,1,0.86,1,69.06,71.06,1,1,0,0,1,1,0,0,0,0,#NULL!,#NULL!,6.51,0,1,1.072
912,1,349139.34,15,101.69,103.71,1,9.25,0.2,2,1.6,1,105.85,107.85,1,1,0,0,-1,1,0,0,0,0,#NULL!,1,7.94,0,9.092,9.092
912,1,349139.34,16,107.86,109.88,1,10.24,0.2,1,0.58,1,111,113,1,1,0,0,-1,1,0,0,0,0,#NULL!,1,8.93,0,8.9818,8.9818
912,1,349139.34,18,122.11,124.13,1,7.98,0.5,1,0.64,1,125.29,127.29,1,1,0,0,1,1,0,0,0,0,#NULL!,#NULL!,6.84,0,7.54,7.54
912,1,349139.34,19,127.31,129.33,1,7.25,0.2,1,0.7,1,130.56,132.56,1,1,0,0,1,1,0,0,0,0,#NULL!,#NULL!,5.94,0,7.3813,7.3813
912,1,349139.34,20,132.58,134.59,0,-1.35,0.8,1,0.61,1,135.74,137.74,1,1,0,0,-1,0,0,0,1,0,0,#NULL!,4.79,0,1,-0.54
912,1,349139.34,21,140.58,142.6,0,-0.85,1,2,1.02,1,144.15,146.15,1,1,0,0,-1,0,0,0,0,0,0,#NULL!,4.96,0,1,0.56135
912,1,349139.34,24,157.65,159.67,1,10.75,1,1,0.55,1,160.75,162.75,1,1,0,0,-1,1,0,0,1,0,#NULL!,1,6.64,0,1,1.3413
912,1,349139.34,25,166.06,168.08,1,10.15,0.8,1,0.82,1,169.43,171.43,1,1,0,0,-1,1,0,0,0,0,#NULL!,1,6.71,0,0.972,0.97203
912,1,349139.34,26,171.45,173.46,1,9.89,0.2,2,0.96,1,174.96,176.96,1,1,0,0,-1,1,0,0,0,0,#NULL!,1,8.58,0,10.122,10.122
912,1,349139.34,28,186.51,188.52,1,7.19,0.2,1,0.75,1,189.81,191.81,1,1,0,0,1,1,0,0,0,0,#NULL!,#NULL!,5.88,0,9.4618,9.4618
912,1,349139.34,32,211.89,213.9,1,9.8,0.5,1,1.61,1,216.03,218.03,1,1,0,0,-1,1,0,0,0,0,#NULL!,1,8.66,0,7.5613,7.5613
912,1,349139.34,33,218.05,220.07,1,10.1,0.5,1,0.57,1,221.17,223.17,1,1,0,0,-1,1,0,0,0,0,#NULL!,1,8.96,0,7.73,7.73
912,1,349139.34,34,223.18,225.2,1,10.25,0.8,2,0.63,1,226.37,228.37,1,1,0,0,-1,1,0,0,0,0,#NULL!,1,6.81,0,1,-1.58
912,1,349139.34,35,228.38,230.4,1,8.15,0.2,1,0.5,1,231.44,233.44,1,1,0,0,1,1,0,0,0,0,#NULL!,#NULL!,6.84,0,1,-0.36821
912,1,349139.34,36,233.45,235.47,1,7.05,0.5,2,0.54,1,236.55,238.55,1,1,0,0,1,1,0,0,0,0,#NULL!,#NULL!,5.91,0,1,0.87203
912,1,349139.34,37,241.51,243.53,0,-1.15,0.8,1,0.67,1,244.73,246.73,1,1,0,0,-1,0,0,0,1,0,0,#NULL!,4.59,0,1.152,1.152
912,1,349139.34,38,249.58,251.6,0,-1.3,1,2,0.71,1,252.83,254.83,1,1,0,0,-1,0,0,0,0,0,0,#NULL!,5.41,0,9.962,9.962
912,1,349139.34,41,265.34,267.35,1,9.05,0.5,2,0.95,1,268.84,270.84,1,1,0,0,-1,1,0,0,0,0,#NULL!,1,7.91,0,9.7318,9.7318
912,1,349139.34,42,270.85,272.87,1,9.97,0.2,2,0.64,1,274.04,276.04,1,1,0,0,-1,1,0,0,0,0,#NULL!,1,8.66,0,6.9813,6.9813
912,1,349139.34,43,276.05,278.07,1,8.29,0.5,2,0.69,1,279.3,281.3,1,1,0,0,1,1,0,0,0,0,#NULL!,#NULL!,7.15,0,7.46,7.46
912,1,349139.34,45,290.16,292.18,0,-1.55,1,1,0.81,1,293.53,295.53,1,1,0,0,-1,0,0,0,0,0,0,#NULL!,5.66,0,1,-1.47
912,1,349139.34,48,306.18,308.19,1,9.78,0.5,1,1.04,1,309.76,311.76,1,1,0,0,-1,1,0,0,0,0,#NULL!,1,8.64,0,1,-0.81865
912,1,349139.34,49,315.01,317.02,1,10.16,0.8,2,0.71,1,318.27,320.27,1,1,0,0,-1,1,0,0,0,0,#NULL!,1,6.72,0,1,0.71179
912,1,349139.34,50,320.29,322.3,1,7.34,0.5,2,0.55,1,323.39,325.39,1,1,0,0,1,1,0,0,0,0,#NULL!,#NULL!,6.2,0,1.422,1.422
912,1,349139.34,52,330.45,332.47,0,-1.46,0.8,1,0.39,1,333.39,335.39,1,1,0,0,-1,0,0,0,1,0,0,#NULL!,4.9,0,9.802,9.802
912,1,349139.34,57,362.48,364.5,1,10.22,0.5,1,0.57,1,365.6,367.6,1,1,0,0,-1,1,0,0,0,0,#NULL!,1,9.08,0,7.0618,7.0618
912,1,349139.34,58,367.62,369.64,1,9.48,0.2,1,0.74,1,370.9,372.9,1,1,0,0,-1,1,0,0,0,0,#NULL!,1,8.17,0,7.23,7.23
912,1,349139.34,60,378.37,380.39,1,8.12,0.8,1,0.63,1,381.55,383.55,1,1,0,0,1,1,0,0,0,0,#NULL!,#NULL!,4.68,0,1,-2.27
912,1,349139.34,61,383.57,385.59,0,-1.67,0.8,1,0.42,1,386.54,388.54,1,1,0,0,-1,0,0,0,1,0,0,#NULL!,5.11,0,1,-0.38865
912,1,349139.34,64,406.51,408.53,1,9.66,0.5,1,0.97,1,410.03,412.03,1,1,0,0,-1,1,0,0,0,0,#NULL!,1,8.52,0,1,0.80203
912,1,349139.34,65,412.05,414.07,1,9.99,0.2,1,0.6,1,415.2,417.2,1,1,0,0,-1,1,0,0,0,0,#NULL!,1,8.68,0,1,1.5318
912,1,349139.34,68,431.49,433.51,0,-0.46,1,1,0.41,1,434.44,436.44,1,1,0,0,-1,0,0,0,0,0,0,#NULL!,4.57,0,8.5184,8.5184
912,1,349139.34,72,453.54,455.56,1,9.95,0.2,1,0.33,1,456.42,458.42,1,1,0,0,-1,1,0,0,0,0,#NULL!,1,8.64,0,9.2184,9.2184
912,1,349139.34,73,461.23,463.24,1,10.47,0.5,1,0.8,1,464.58,466.58,1,1,0,0,-1,1,0,0,0,0,#NULL!,1,9.33,0,6.3573,6.3573
912,1,349139.34,77,482.58,484.6,0,-1.55,0.8,2,0.81,1,485.93,487.93,1,1,0,0,-1,0,0,0,1,0,0,#NULL!,4.99,0,1,-3.57
912,1,349139.34,80,503.8,505.82,1,9.99,0.2,1,0.47,1,506.82,508.82,1,1,0,0,-1,1,0,0,0,0,#NULL!,1,8.68,0,1,-1.4627
912,3,350431.67,1,0.04,2.07,0,-1.77,1,1,0.49,1,3.09,5.09,1,1,0,0,-1,0,0,0,0,0,0,#NULL!,4.67,0,1,0.098381
912,3,350431.67,4,19.45,21.47,1,9.4,0.2,1,0.82,1,22.82,24.82,1,1,0,0,-1,1,0,0,0,0,#NULL!,1,8.34,0,9.1584,9.1584
912,3,350431.67,5,24.85,26.87,1,9.38,0.5,2,0.57,1,27.97,29.97,1,1,0,0,-1,1,0,0,0,0,#NULL!,1,8.41,0,8.4384,8.4384
912,3,350431.67,7,35.49,37.5,0,-2,1,1,0.48,1,38.52,40.52,1,1,0,0,-1,0,0,0,0,0,0,#NULL!,4.9,0,6.7173,6.7173
912,3,350431.67,11,62.14,64.15,1,9.99,0.2,2,0.91,1,65.59,67.59,1,1,0,0,-1,1,0,0,0,0,#NULL!,1,8.93,0,7.0084,7.0084
912,3,350431.67,12,69.93,71.95,1,9.61,0.5,1,0.68,1,73.17,75.17,1,1,0,0,-1,1,0,0,0,0,#NULL!,1,8.64,0,1,-1.77
912,3,350431.67,13,75.18,77.2,1,8.12,0.8,1,1.32,1,79.05,81.05,1,1,0,0,0,1,0,0,0,0,#NULL!,#NULL!,4.76,0,1,-2.2327
912,3,350431.67,14,81.07,83.08,1,7.99,1,2,0.64,1,84.27,86.27,1,1,0,0,1,1,0,0,1,0,#NULL!,#NULL!,5.1,0,1,-0.21156
912,3,350431.67,15,86.28,88.3,0,-1.86,0.8,2,0.67,1,89.5,91.5,1,1,0,0,-1,0,0,0,1,0,0,#NULL!,5.22,0,1,0.088381
912,3,350431.67,20,117.47,119.49,1,10.11,0.5,2,0.73,1,120.76,122.76,1,1,0,0,-1,1,0,0,0,0,#NULL!,1,9.14,0,8.4384,8.4384
912,3,350431.67,21,125.88,127.89,1,9.75,0.2,2,0.82,1,129.24,131.24,1,1,0,0,-1,1,0,0,0,0,#NULL!,1,8.69,0,9.4284,9.4284
912,3,350431.67,22,131.26,133.28,1,10.15,0.5,2,1.76,1,135.58,137.58,1,1,0,0,-1,1,0,0,0,0,#NULL!,1,9.18,0,6.56,6.56
912,3,350431.67,23,137.59,139.61,1,9.89,0.2,1,1.03,1,141.18,143.18,1,1,0,0,-1,1,0,0,0,0,#NULL!,1,8.83,0,6.7984,6.7984
912,3,350431.67,25,148.23,150.25,1,8.19,1,2,0.63,1,151.41,153.41,1,1,0,0,1,1,0,0,1,0,#NULL!,#NULL!,5.3,0,6.4384,6.4384
912,3,350431.67,29,173.29,175.31,1,9.8,0.5,2,0.71,1,176.56,178.56,1,1,0,0,-1,1,0,0,0,0,#NULL!,1,8.83,0,1,-2.7827
912,3,350431.67,30,178.58,180.6,1,10.1,0.2,2,0.66,1,181.8,183.8,1,1,0,0,-1,1,0,0,0,0,#NULL!,1,9.04,0,1,-2.42
912,3,350431.67,31,186.93,188.94,1,10.25,0.5,1,0.56,1,190.05,192.05,1,1,0,0,-1,1,0,0,0,0,#NULL!,1,9.28,0,1,-0.29156
912,3,350431.67,32,192.06,194.08,1,8.15,1,2,0.6,1,195.21,197.21,1,1,0,0,1,1,0,0,1,0,#NULL!,#NULL!,5.26,0,1,-0.23162
912,3,350431.67,38,228.42,230.43,1,9.97,0.5,1,1.56,1,232.53,234.53,1,1,0,0,-1,1,0,0,0,0,#NULL!,1,9,0,9.18,9.18
912,3,350431.67,39,234.55,236.57,1,10.07,0.2,1,2.16,1,239.25,241.25,1,1,0,0,-1,1,0,0,0,0,#NULL!,1,9.01,0,8.7173,8.7173
912,3,350431.67,40,241.27,243.28,1,8.29,1,1,1.22,1,245.04,247.04,1,1,0,0,1,1,0,0,1,0,#NULL!,#NULL!,5.4,0,9.0784,9.0784
912,3,350431.67,41,247.05,249.07,1,7.96,0.8,1,0.58,1,250.19,252.19,1,1,0,0,1,1,0,0,0,0,#NULL!,#NULL!,4.6,0,5.83,5.83
912,3,350431.67,45,273.39,275.41,1,9.78,0.2,2,0.73,1,276.67,278.67,1,1,0,0,-1,1,0,0,0,0,#NULL!,1,8.72,0,6.3784,6.3784
912,3,350431.67,46,278.69,280.71,1,10.16,0.5,1,1.31,1,282.54,284.54,1,1,0,0,-1,1,0,0,0,0,#NULL!,1,9.19,0,1,-1.6527
912,3,350431.67,47,284.56,286.57,1,8.87,0.8,1,0.58,1,287.69,289.69,1,1,0,0,0,1,0,0,0,0,#NULL!,#NULL!,5.51,0,1,-2.01
912,3,350431.67,52,313.51,315.53,1,10.25,0.2,1,0.46,1,316.53,318.53,1,1,0,0,-1,1,0,0,0,0,#NULL!,1,9.19,0,0.8784,0.87844
912,3,350431.67,53,323.37,325.38,1,9.24,0.2,2,0.72,1,326.64,328.64,1,1,0,0,-1,1,0,0,0,0,#NULL!,1,8.18,0,8.6184,8.6184
912,3,350431.67,54,328.65,330.67,1,8.13,1,2,0.57,1,331.77,333.77,1,1,0,0,0,1,0,0,1,0,#NULL!,#NULL!,5.24,0,8.9184,8.9184
912,3,350431.67,55,333.78,335.8,1,8.08,0.8,2,0.75,1,337.09,339.09,1,1,0,0,1,1,0,0,0,0,#NULL!,#NULL!,4.72,0,8.8173,8.8173
912,3,350431.67,57,344.2,346.22,0,-1.67,0.8,2,0.69,1,347.44,349.44,1,1,0,0,-1,0,0,0,1,0,0,#NULL!,5.03,0,7.3384,7.3384
912,3,350431.67,60,363.41,365.43,1,9.66,0.5,2,0.71,1,366.68,368.68,1,1,0,0,-1,1,0,0,0,0,#NULL!,1,8.69,0,5.8684,5.8684
912,3,350431.67,61,371.42,373.44,1,9.99,0.2,2,0.78,1,374.75,376.75,1,1,0,0,-1,1,0,0,0,0,#NULL!,1,8.93,0,1,-2.5827
912,3,350431.67,63,381.74,383.75,1,8.12,1,1,1.41,1,385.7,387.7,1,1,0,0,1,1,0,0,1,0,#NULL!,#NULL!,5.23,0,1,-2.87
912,3,350431.67,67,407.39,409.4,1,9.95,0.2,1,0.49,1,410.42,412.42,1,1,0,0,-1,1,0,0,0,0,#NULL!,1,8.89,0,0.5684,0.56838
912,3,350431.67,68,412.44,414.46,1,10.47,0.5,1,0.6,1,415.59,417.59,1,1,0,0,-1,1,0,0,0,0,#NULL!,1,9.5,0,1,0.078438
912,3,350431.67,69,417.61,419.62,1,8.33,1,2,0.78,1,420.94,422.94,1,1,0,0,0,1,0,0,1,0,#NULL!,#NULL!,5.44,0,7.8684,7.8684
912,3,350431.67,71,428.26,430.27,1,7.55,1,1,0.68,1,431.49,433.49,1,1,0,0,1,1,0,0,1,0,#NULL!,#NULL!,4.66,0,9.1584,9.1584
912,3,350431.67,72,433.51,435.52,0,-1.55,0.8,1,0.43,1,436.49,438.49,1,1,0,0,-1,0,0,0,1,0,0,#NULL!,4.91,0,7.1084,7.1084
912,3,350431.67,75,451.81,453.82,1,9.99,0.2,1,0.36,1,454.73,456.73,1,1,0,0,-1,1,0,0,0,0,#NULL!,1,8.93,0,6.5273,6.5273
912,3,350431.67,76,459.33,461.35,1,9.24,0.5,1,0.51,1,462.4,464.4,1,1,0,0,-1,1,0,0,0,0,#NULL!,1,8.27,0,1,-3.12
912,3,350431.67,77,464.41,466.43,1,7.92,1,1,1.27,1,468.23,470.23,1,1,0,0,1,1,0,0,1,0,#NULL!,#NULL!,5.03,0,1,-1.9527
912,3,350431.67,78,470.25,472.27,1,8.08,1,2,1.28,1,474.08,476.08,1,1,0,0,1,1,0,0,1,0,#NULL!,#NULL!,5.19,0,1,0.10844
913,1,280292.3,1,0.08,2.09,1,9.33,0.2,2,0.94,1,3.59,5.59,1,2,0,0,-1,1,0,0,0,0,#NULL!,1,8.02,0,8.5984,8.5984
913,1,280292.3,2,5.62,7.64,1,10.4,0.5,1,0.48,1,8.66,10.66,1,2,0,0,-1,1,0,0,0,0,#NULL!,1,9.37,0,8.7273,8.7273
913,1,280292.3,4,15.71,17.72,0,-2,1,2,0.73,1,18.99,20.99,1,2,0,0,-1,0,0,0,0,0,0,#NULL!,6.11,0,6.1584,6.1584
913,1,280292.3,7,36.75,38.77,1,9.97,0.2,1,0.61,1,39.92,41.92,1,2,0,0,-1,1,0,0,0,0,#NULL!,1,8.66,0,6.51,6.51
913,1,280292.3,8,46.22,48.24,1,9.62,0.5,2,0.79,1,49.58,51.58,1,2,0,0,-1,1,0,0,0,0,#NULL!,1,8.59,0,1,-2.8927
913,1,280292.3,9,51.59,53.61,1,8.15,0.8,2,0.56,1,54.71,56.71,1,2,0,0,1,1,0,0.02,0,0,#NULL!,#NULL!,4.71,0,1,-1.1916
913,1,280292.3,10,56.73,58.74,1,7.82,0.2,1,0.61,1,59.88,61.88,1,2,0,0,1,1,0,0,0,0,#NULL!,#NULL!,6.51,0,1,-0.26162
913,1,280292.3,15,90.59,92.61,1,9.25,0.2,2,0.79,1,93.93,95.93,1,2,0,0,-1,1,0,0,0,0,#NULL!,1,7.94,0,1,-0.11
913,1,280292.3,16,95.94,97.96,1,10.24,0.2,1,0.39,1,98.88,100.88,1,2,0,0,-1,1,0,0,0,0,#NULL!,1,8.93,0,1,-0.33162
913,1,280292.3,18,111.13,113.15,1,7.98,0.5,1,0.65,1,114.33,116.33,1,2,0,0,1,1,0,0,0,0,#NULL!,#NULL!,6.95,0,9.0384,9.0384
913,1,280292.3,19,116.35,118.37,1,7.25,0.2,1,0.57,1,119.47,121.47,1,2,0,0,1,1,0,0.01,0,0,#NULL!,#NULL!,5.94,0,8.6684,8.6684
913,1,280292.3,20,121.48,123.5,0,-1.35,0.8,1,0.58,1,124.62,126.62,1,2,0,0,-1,0,0,0.03,1,0,0,#NULL!,4.79,0,6.35,6.35
913,1,280292.3,21,130.5,132.51,0,-0.85,1,2,0.63,1,133.68,135.68,1,2,0,0,-1,0,0,0,0,0,0,#NULL!,4.96,0,6.6873,6.6873
913,1,280292.3,24,146.58,148.59,1,10.75,1,1,0.63,1,149.76,151.76,1,2,0,0,-1,1,0,0.15,1,0,#NULL!,1,6.64,0,1,-3.1027
913,1,280292.3,25,155.19,157.21,1,10.15,0.8,1,0.75,1,158.49,160.49,1,2,0,0,-1,1,0,0,0,0,#NULL!,1,6.71,0,1,0.028438
913,1,280292.3,26,160.51,162.52,1,9.89,0.2,2,0.51,1,163.56,165.56,1,2,0,0,-1,1,0,0,0,0,#NULL!,1,8.58,0,1,0.55838
913,1,280292.3,28,173.75,175.76,1,7.19,0.2,1,0.62,1,176.91,178.91,1,2,0,0,1,1,0,0.01,0,0,#NULL!,#NULL!,5.88,0,8.4784,8.4784
913,1,280292.3,30,184.08,186.1,0,-0.44,1,1,0.38,1,187.02,189.02,1,2,0,0,0,0,0,0,0,0,#NULL!,#NULL!,4.55,0,9.1784,9.1784
913,1,280292.3,32,196.9,198.92,1,9.8,0.5,1,0.42,1,199.87,201.87,1,2,0,0,-1,1,0,0,0,0,#NULL!,1,8.77,0,5.6573,5.6573
913,1,280292.3,33,201.88,203.9,1,10.1,0.5,1,0.37,1,204.8,206.8,1,2,0,0,-1,1,0,0,0,0,#NULL!,1,9.07,0,6.55,6.55
913,1,280292.3,34,206.82,208.83,1,10.25,0.8,2,0.64,1,210,212,1,2,0,0,-1,1,0,0,0,0,#NULL!,1,6.81,0,1,-2.03
913,1,280292.3,35,212.02,214.03,1,8.15,0.2,1,0.61,1,215.18,217.18,1,2,0,0,1,1,0,0,0,0,#NULL!,#NULL!,6.84,0,1,-0.81274
913,1,280292.3,36,217.2,219.22,1,7.05,0.5,2,0.53,1,220.28,222.28,1,2,0,0,1,1,0,0.01,0,0,#NULL!,#NULL!,6.02,0,1,-0.34162
913,1,280292.3,37,225.57,227.59,0,-1.15,0.8,1,0.64,1,228.78,230.78,1,2,0,0,-1,0,0,0.04,1,0,0,#NULL!,4.59,0,1,-0.031562
913,1,280292.3,38,234.05,236.07,0,-1.3,1,2,0.65,1,237.25,239.25,1,2,0,0,-1,0,0,0,0,0,0,#NULL!,5.41,0,9.1384,9.1384
913,1,280292.3,41,249.45,251.47,1,9.05,0.5,2,1.05,1,253.05,255.05,1,2,0,0,-1,1,0,0,0,0,#NULL!,1,8.02,0,9.2884,9.2884
913,1,280292.3,42,255.07,257.09,1,9.97,0.2,2,0.6,1,258.22,260.22,1,2,0,0,-1,1,0,0,0,0,#NULL!,1,8.66,0,6.76,6.76
913,1,280292.3,43,260.24,262.25,1,8.29,0.5,2,0.55,1,263.34,265.34,1,2,0,0,1,1,0,0,0,0,#NULL!,#NULL!,7.26,0,5.7873,5.7873
913,1,280292.3,44,265.35,267.37,1,7.96,0.8,2,0.69,1,268.61,270.61,1,2,0,0,1,1,0,0.03,0,0,#NULL!,#NULL!,4.52,0,5.98,5.98
913,1,280292.3,45,273,275.02,0,-1.55,1,1,0.42,1,275.97,277.97,1,2,0,0,-1,0,0,0,0,0,0,#NULL!,5.66,0,1,-2.9827
913,1,280292.3,48,288.74,290.75,1,9.78,0.5,1,0.77,1,292.05,294.05,1,2,0,0,-1,1,0,0,0,0,#NULL!,1,8.75,0,1,-1.94
913,1,280292.3,49,297.1,299.12,1,10.16,0.8,2,0.71,1,300.37,302.37,1,2,0,0,-1,1,0,0,0,0,#NULL!,1,6.72,0,1,-0.14162
913,1,280292.3,50,302.39,304.4,1,7.34,0.5,2,0.49,1,305.42,307.42,1,2,0,0,1,1,0,0.01,0,0,#NULL!,#NULL!,6.31,0,9.1784,9.1784
913,1,280292.3,52,313.04,315.05,0,-1.46,0.8,1,0.38,1,315.97,317.97,1,2,0,0,-1,0,0,0.03,0,0,0,#NULL!,4.9,0,NaN,-1.84
913,1,280292.3,57,342.16,344.18,1,10.22,0.5,1,0.36,1,345.08,347.08,1,2,0,0,-1,1,0,0,0,0,#NULL!,1,9.19,0,1,-1.8327
913,1,280292.3,58,347.1,349.11,1,9.48,0.2,1,0.44,1,350.1,352.1,1,2,0,0,-1,1,0,0,0,0,#NULL!,1,8.17,0,1,0.018381
913,1,280292.3,60,357.66,359.68,1,8.12,0.8,1,0.51,1,360.71,362.71,1,2,0,0,1,1,0,0.02,0,0,#NULL!,#NULL!,4.68,0,1,-0.011562
913,1,280292.3,61,362.73,364.75,0,-1.67,0.8,1,0.46,1,365.73,367.73,1,2,0,0,-1,0,0,0.03,0,0,0,#NULL!,5.11,0,9.1884,9.1884
913,1,280292.3,64,385.33,387.34,1,9.66,0.5,1,0.52,1,388.39,390.39,1,2,0,0,-1,1,0,0,0,0,#NULL!,1,8.63,0,8.4384,8.4384
913,1,280292.3,65,390.41,392.42,1,9.99,0.2,1,0.43,1,393.39,395.39,1,2,0,0,-1,1,0,0,0,0,#NULL!,1,8.68,0,5.9884,5.9884
913,1,280292.3,68,408.82,410.83,0,-0.46,1,1,0.66,1,412.03,414.03,1,2,0,0,-1,0,0,0,0,0,0,#NULL!,4.57,0,6.1484,6.1484
913,1,280292.3,72,429.06,431.07,1,9.95,0.2,1,0.6,1,432.21,434.21,1,2,0,0,-1,1,0,0,0,0,#NULL!,1,8.64,0,1,-3.49
913,1,280292.3,73,437.14,439.16,1,10.47,0.5,1,0.63,1,440.33,442.33,1,2,0,0,-1,1,0,0,0,0,#NULL!,1,9.44,0,1,-1.7427
913,1,280292.3,77,457.45,459.46,0,-1.55,0.8,2,0.77,1,460.76,462.76,1,2,0,0,-1,0,0,0.03,0,0,0,#NULL!,4.99,0,1,-0.44162
913,1,280292.3,80,477.48,479.5,1,9.99,0.2,1,0.7,1,480.73,482.73,1,2,0,0,-1,1,0,0,0,0,#NULL!,1,8.68,0,1,0.32844
913,3,281604.19,1,0.05,2.08,0,-1.77,1,1,1.64,1,4.26,6.26,1,2,0,0,-1,0,0,0,0,0,0,#NULL!,9.15,0,9.2884,9.2884
913,3,281604.19,4,20.63,22.64,1,9.4,0.2,1,0.49,1,23.66,25.66,1,2,0,0,-1,1,0,0,0,0,#NULL!,1,8.08,0,8.3684,8.3684
913,3,281604.19,5,25.68,27.7,1,9.38,0.5,2,0.73,1,28.96,30.96,1,2,0,0,-1,1,0,0,0,0,#NULL!,1,8.41,0,6.4473,6.4473
913,3,281604.19,7,36.06,38.08,0,-2,1,1,0.47,1,39.08,41.08,1,2,0,0,-1,0,0,0,0,0,0,#NULL!,9.38,0,6.33,6.33
913,3,281604.19,11,61.57,63.58,1,9.99,0.2,2,0.61,1,64.72,66.72,1,2,0,0,-1,1,0,0,0,0,#NULL!,1,8.67,0,5.65,5.65
913,3,281604.19,12,69.63,71.64,1,9.61,0.5,1,0.74,1,72.93,74.93,1,2,0,0,-1,1,0,0,0,0,#NULL!,1,8.64,0,1,-3.08
913,3,281604.19,13,74.94,76.96,1,8.12,0.8,1,0.8,1,78.29,80.29,1,2,0,0,0,1,0,0.02,0,0,#NULL!,#NULL!,4.76,0,1,-1.6727
913,3,281604.19,15,85.53,87.54,0,-1.86,0.8,2,0.74,1,88.81,90.81,1,2,0,0,-1,0,0,0.02,0,0,0,#NULL!,5.22,0,1,-0.35162
913,3,281604.19,20,119.4,121.42,1,10.11,0.5,2,0.8,1,122.75,124.75,1,2,0,0,-1,1,0,0,0,0,#NULL!,1,9.14,0,0.3884,0.38844
913,3,281604.19,21,127.15,129.17,1,9.75,0.2,2,0.67,1,130.37,132.37,1,2,0,0,-1,1,0,0,0,0,#NULL!,1,8.43,0,0.6784,0.67844
913,3,281604.19,22,132.38,134.4,1,10.15,0.5,2,0.73,1,135.67,137.67,1,2,0,0,-1,1,0,0,0,0,#NULL!,1,9.18,0,8.9684,8.9684
913,3,281604.19,23,137.68,139.7,1,9.89,0.2,1,0.67,1,140.9,142.9,1,2,0,0,-1,1,0,0,0,0,#NULL!,1,8.57,0,9.8084,9.8084
913,3,281604.19,27,161.36,163.37,0,-0.44,1,2,0.62,1,164.52,166.52,1,2,0,0,-1,0,0,0,0,0,0,#NULL!,7.82,0,5.86,5.86
913,3,281604.19,29,172.12,174.14,1,9.8,0.5,2,0.65,1,175.32,177.32,1,2,0,0,-1,1,0,0,0,0,#NULL!,1,8.83,0,1,-1.62
913,3,281604.19,30,177.34,179.36,1,10.1,0.2,2,0.77,1,180.66,182.66,1,2,0,0,-1,1,0,0,0,0,#NULL!,1,8.78,0,1,-2.2827
913,3,281604.19,31,186.8,188.81,1,10.25,0.5,1,0.49,1,189.83,191.83,1,2,0,0,-1,1,0,0,0,0,#NULL!,1,9.28,0,1,-0.66162
913,3,281604.19,34,205.88,207.89,0,-1.15,0.8,2,1.86,1,210.29,212.29,1,2,0,0,-1,0,0,0.04,1,0,0,#NULL!,4.51,0,0.8384,0.83844
913,3,281604.19,35,212.31,214.33,0,-1.3,1,1,0.48,1,215.35,217.35,1,2,0,0,-1,0,0,0,0,0,0,#NULL!,8.68,0,9.0184,9.0184
913,3,281604.19,38,231.86,233.87,1,9.97,0.5,1,0.51,1,234.91,236.91,1,2,0,0,-1,1,0,0,0,0,#NULL!,1,9,0,9.1584,9.1584
913,3,281604.19,39,236.92,238.94,1,10.07,0.2,1,0.66,1,240.14,242.14,1,2,0,0,-1,1,0,0,0,0,#NULL!,1,8.75,0,7.2473,7.2473
913,3,281604.19,41,247.21,249.23,1,7.96,0.8,1,0.63,1,250.39,252.39,1,2,0,0,1,1,0,0.03,0,0,#NULL!,#NULL!,4.6,0,6.5373,6.5373
913,3,281604.19,42,255.8,257.82,0,-0.85,1,1,0.42,1,258.77,260.77,1,2,0,0,-1,0,0,0,0,0,0,#NULL!,8.23,0,5.95,5.95
913,3,281604.19,45,273.31,275.33,1,9.78,0.2,2,0.5,1,276.36,278.36,1,2,0,0,-1,1,0,0,0,0,#NULL!,1,8.46,0,1,-2.46
913,3,281604.19,46,278.38,280.4,1,10.16,0.5,1,0.55,1,281.48,283.48,1,2,0,0,-1,1,0,0,0,0,#NULL!,1,9.19,0,1,-1.2427
913,3,281604.19,47,283.5,285.51,1,8.87,0.8,1,0.37,1,286.41,288.41,1,2,0,0,0,1,0,0.01,0,0,#NULL!,#NULL!,5.51,0,0.4684,0.46838
913,3,281604.19,48,288.43,290.45,0,-0.46,1,1,0.43,1,291.41,293.42,1,2,0,0,-1,0,0,0,0,0,0,#NULL!,7.84,0,0.8084,0.80844
913,3,281604.19,52,312.12,314.14,1,10.25,0.2,1,0.47,1,315.14,317.14,1,2,0,0,-1,1,0,0,0,0,#NULL!,1,8.93,0,9.4484,9.4484
913,3,281604.19,53,323.39,325.4,1,9.24,0.2,2,0.9,1,326.84,328.84,1,2,0,0,-1,1,0,0,0,0,#NULL!,1,7.92,0,6.67,6.67
913,3,281604.19,55,334.16,336.17,1,8.08,0.8,2,1.03,1,337.74,339.74,1,2,0,0,1,1,0,0.02,0,0,#NULL!,#NULL!,4.72,0,6.5573,6.5573
913,3,281604.19,57,344.99,347.01,0,-1.67,0.8,2,0.54,1,348.07,350.07,1,2,0,0,-1,0,0,0.03,0,0,0,#NULL!,5.03,0,1,-2.53
913,3,281604.19,60,364.8,366.82,1,9.66,0.5,2,0.68,1,368.03,370.03,1,2,0,0,-1,1,0,0,0,0,#NULL!,1,8.69,0,1,-0.55162
913,3,281604.19,61,374.57,376.59,1,9.99,0.2,2,0.79,1,377.91,379.91,1,2,0,0,-1,1,0,0,0,0,#NULL!,1,8.67,0,0.6384,0.63844
913,3,281604.19,64,393.48,395.49,0,-1.55,1,2,0.41,1,396.44,398.44,1,2,0,0,-1,0,0,0,0,0,0,#NULL!,8.93,0,9.7384,9.7384
913,3,281604.19,67,408.93,410.94,1,9.95,0.2,1,0.68,1,412.16,414.16,1,2,0,0,-1,1,0,0,0,0,#NULL!,1,8.63,0,9.0384,9.0384
913,3,281604.19,68,414.18,416.19,1,10.47,0.5,1,0.58,1,417.31,419.31,1,2,0,0,-1,1,0,0,0,0,#NULL!,1,9.5,0,5.8973,5.8973
913,3,281604.19,72,435.73,437.75,0,-1.55,0.8,1,0.22,1,438.5,440.5,1,2,0,0,-1,0,0,0.03,0,0,0,#NULL!,4.91,0,6.0373,6.0373
913,3,281604.19,73,442.68,444.7,0,-0.37,1,1,0.26,1,445.5,447.5,1,2,0,0,0,0,0,0,0,0,#NULL!,#NULL!,7.75,0,6.38,6.38
913,3,281604.19,75,453.16,455.18,1,9.99,0.2,1,0.54,1,456.25,458.25,1,2,0,0,-1,1,0,0,0,0,#NULL!,1,8.67,0,1,-2.79
913,3,281604.19,76,461.81,463.82,1,9.24,0.5,1,0.89,1,465.24,467.24,1,2,0,0,-1,1,0,0,0,0,#NULL!,1,8.27,0,1,-1.5927
913,3,281604.19,79,479.99,482.01,0,-1.06,1,1,0.33,1,482.88,484.88,1,2,0,0,-1,0,0,0,0,0,0,#NULL!,8.44,0,1,-0.81274
914,1,257513.28,1,0.08,2.09,1,9.33,0.2,2,0.9,1,3.54,5.54,1,1,0,0,-1,1,0,0,0,0,#NULL!,1,9.33,0,0.6984,0.69844
914,1,257513.28,2,5.58,7.59,1,10.4,0.5,1,1.4,1,9.52,11.53,1,1,0,0,-1,1,0,0,0,0,#NULL!,1,10.4,0,8.9384,8.9384
914,1,257513.28,3,11.56,13.57,1,7.79,0.8,2,1.65,1,15.76,17.76,1,1,0.01,0,1,1,0,0,0,0,#NULL!,#NULL!,7.79,0,9.1784,9.1784
914,1,257513.28,4,17.79,19.81,0,-2,1,2,0.74,1,21.07,23.07,1,1,0,0,-1,0,0,0,0,0,0,#NULL!,6.11,0,6.5,6.5
914,1,257513.28,7,39.17,41.19,1,9.97,0.2,1,1.31,1,43.04,45.04,1,1,0,0,-1,1,0,0,0,0,#NULL!,1,9.97,0,6.5273,6.5273
914,1,257513.28,8,48.59,50.6,1,9.62,0.5,2,1.68,1,52.82,54.82,1,1,0,0,-1,1,0,0,0,0,#NULL!,1,9.62,0,1,-2.83
914,1,257513.28,9,54.84,56.85,1,8.15,0.8,2,1.08,1,58.47,60.47,1,1,0,0,1,1,0,0,0,0,#NULL!,#NULL!,8.15,0,1,-0.34162
914,1,257513.28,10,60.49,62.5,1,7.82,0.2,1,1.21,1,64.25,66.25,1,1,0,0,1,1,0,0,0,0,#NULL!,#NULL!,7.82,0,1,0.51844
914,1,257513.28,15,94.54,96.56,1,9.25,0.2,2,0.99,1,98.08,100.08,1,1,0,0,-1,1,0,0,0,0,#NULL!,1,9.25,0,8.4284,8.4284
914,1,257513.28,16,100.09,102.11,1,10.24,0.2,1,1.53,1,104.18,106.18,1,1,0,0,-1,1,0,0,0,0,#NULL!,1,10.24,0,8.9384,8.9384
914,1,257513.28,18,115.12,117.13,1,7.98,0.5,1,0.89,1,118.57,120.57,1,1,0,0,1,1,0,0,0,0,#NULL!,#NULL!,7.98,0,6.0473,6.0473
914,1,257513.28,19,120.59,122.6,1,7.25,0.2,1,0.67,1,123.8,125.8,1,1,0.01,0,1,1,0,0,0,0,#NULL!,#NULL!,7.25,0,5.65,5.65
914,1,257513.28,21,133.73,135.74,0,-0.85,1,2,0.94,1,137.21,139.21,1,1,0.01,0,-1,0,0,0,0,0,0,#NULL!,4.96,0,1,-2.72
914,1,257513.28,24,150.26,152.28,1,10.75,1,1,0.39,1,153.2,155.2,1,1,0,0,-1,1,0,0,0,0,#NULL!,1,6.64,0,1,-1.9727
914,1,257513.28,25,158.23,160.25,1,10.15,0.8,1,0.75,1,161.53,163.53,1,1,0,0,-1,1,0,0,0,0,#NULL!,1,10.15,0,1,-0.26162
914,1,257513.28,26,163.55,165.56,1,9.89,0.2,2,1.04,1,167.13,169.13,1,1,0,0,-1,1,0,0,0,0,#NULL!,1,9.89,0,1,0.17844
914,1,257513.28,28,178.52,180.54,1,7.19,0.2,1,0.92,1,181.99,183.99,1,1,0.01,0,1,1,0,0,0,0,#NULL!,#NULL!,7.19,0,0.7284,0.72844
914,1,257513.28,30,189.54,191.55,0,-0.44,1,1,0.25,1,192.34,194.34,1,1,0.02,1,0,0,0,0,0,0,#NULL!,#NULL!,4.55,0,9.2684,9.2684
914,1,257513.28,32,203.45,205.46,1,9.8,0.5,1,0.86,1,206.86,208.86,1,1,0,0,-1,1,0,0,0,0,#NULL!,1,9.8,0,8.1584,8.1584
914,1,257513.28,33,208.88,210.89,1,10.1,0.5,1,0.51,1,211.94,213.94,1,1,0,0,-1,1,0,0,0,0,#NULL!,1,10.1,0,6.3473,6.3473
914,1,257513.28,34,213.96,215.98,1,10.25,0.8,2,0.87,1,217.38,219.38,1,1,0,0,-1,1,0,0,0,0,#NULL!,1,10.25,0,6.59,6.59
914,1,257513.28,35,219.39,221.41,1,8.15,0.2,1,0.9,1,222.84,224.84,1,1,0,0,1,1,0,0,0,0,#NULL!,#NULL!,8.15,0,1,-2.65
914,1,257513.28,36,224.86,226.88,1,7.05,0.5,2,0.9,1,228.31,230.31,1,1,0.01,0,1,1,0,0,0,0,#NULL!,#NULL!,7.05,0,1,-0.95274
914,1,257513.28,38,241.15,243.17,0,-1.3,1,2,0.8,1,244.5,246.5,1,1,0.01,0,-1,0,0,0,0,0,0,#NULL!,5.41,0,0.6384,0.63844
914,1,257513.28,41,257.72,259.74,1,9.05,0.5,2,1.14,1,261.4,263.4,1,1,0,0,-1,1,0,0,0,0,#NULL!,1,9.05,0,9.3184,9.3184
914,1,257513.28,42,263.42,265.44,1,9.97,0.2,2,0.74,1,266.72,268.72,1,1,0,0,-1,1,0,0,0,0,#NULL!,1,9.97,0,9.2184,9.2184
914,1,257513.28,43,268.74,270.75,1,8.29,0.5,2,0.99,1,272.27,274.27,1,1,0,0,1,1,0,0,0,0,#NULL!,#NULL!,8.29,0,5.76,5.76
914,1,257513.28,44,274.29,276.3,1,7.96,0.8,2,0.92,1,277.75,279.75,1,1,0.01,0,1,1,0,0,0,0,#NULL!,#NULL!,7.96,0,1,-3.52
914,1,257513.28,45,282.63,284.64,0,-1.55,1,1,0.36,1,285.53,287.53,1,1,0,0,-1,0,0,0,0,0,0,#NULL!,5.66,0,1,-3.34
914,1,257513.28,48,297.83,299.85,1,9.78,0.5,1,1.02,1,301.4,303.4,1,1,0,0,-1,1,0,0,0,0,#NULL!,1,9.78,0,1,-1.5127
914,1,257513.28,49,306.09,308.1,1,10.16,0.8,2,1,1,309.64,311.64,1,1,0,0,-1,1,0,0,0,0,#NULL!,1,10.16,0,0.2484,0.24838
914,1,257513.28,50,311.65,313.67,1,7.34,0.5,2,0.55,1,314.75,316.75,1,1,0.01,0,1,1,0,0,0,0,#NULL!,#NULL!,7.34,0,8.5884,8.5884
914,1,257513.28,57,351.24,353.26,1,10.22,0.5,1,0.86,1,354.66,356.66,1,1,0,0,-1,1,0,0,0,0,#NULL!,1,10.22,0,8.1984,8.1984
914,1,257513.28,58,356.67,358.69,1,9.48,0.2,1,0.41,1,359.64,361.64,1,1,0,0,-1,1,0,0,0,0,#NULL!,1,9.48,0,5.7273,5.7273
914,1,257513.28,60,367.49,369.51,1,8.12,0.8,1,1.08,1,371.13,373.13,1,1,0,0,1,1,0,0,0,0,#NULL!,#NULL!,8.12,0,1,-3.57
914,1,257513.28,64,396.47,398.49,1,9.66,0.5,1,1,1,400.02,402.02,1,1,0,0,-1,1,0,0,0,0,#NULL!,1,9.66,0,1,-2.0727
914,1,257513.28,65,402.04,404.05,1,9.99,0.2,1,1.15,1,405.74,407.74,1,1,0,0,-1,1,0,0,0,0,#NULL!,1,9.99,0,1,0.018438
914,1,257513.28,66,407.76,409.77,1,7.09,0.8,2,0.6,1,410.91,412.91,1,1,0.02,0,1,1,0,0,0,0,#NULL!,#NULL!,7.09,0,0.5684,0.56838
914,1,257513.28,68,421.45,423.46,0,-0.46,1,1,0.93,1,424.93,426.93,1,1,0.02,1,-1,0,0,0,0,0,0,#NULL!,4.57,0,9.1784,9.1784
914,1,257513.28,72,442.86,444.88,1,9.95,0.2,1,0.55,1,445.96,447.96,1,1,0,0,-1,1,0,0,0,0,#NULL!,1,9.95,0,8.4284,8.4284
914,1,257513.28,73,451.19,453.21,1,10.47,0.5,1,0.79,1,454.53,456.53,1,1,0,0,-1,1,0,0,0,0,#NULL!,1,10.47,0,6.6873,6.6873
914,1,257513.28,75,461.66,463.68,1,7.22,0.8,1,0.54,1,464.75,466.75,1,1,0.01,0,1,1,0,0,0,0,#NULL!,#NULL!,7.22,0,6.42,6.42
914,1,257513.28,78,480.35,482.36,0,-0.37,1,2,0.97,1,483.86,485.86,1,1,0.02,1,0,0,0,0,0,0,#NULL!,#NULL!,4.48,0,1,-3.2927
914,1,257513.28,80,491.33,493.35,1,9.99,0.2,1,0.41,1,494.28,496.28,1,1,0,0,-1,1,0,0,0,0,#NULL!,1,9.99,0,1,-1.5527
914,3,258763.51,1,0.05,2.08,0,-1.77,1,1,0.85,1,3.46,5.46,1,1,0,0,-1,0,0,0,0,0,0,#NULL!,4.67,0,1,-0.73162
914,3,258763.51,4,19.29,21.31,1,9.4,0.2,1,1,1,22.84,24.84,1,1,0,0,-1,1,0,0,0,0,#NULL!,1,8.08,0,0.4884,0.48838
914,3,258763.51,5,24.86,26.88,1,9.38,0.5,2,1.08,1,28.49,30.49,1,1,0,0,-1,1,0,0,0,0,#NULL!,1,7.52,0,1,0.17844
914,3,258763.51,7,35.71,37.73,0,-2,1,1,0.37,1,38.63,40.63,1,1,0,0,-1,0,0,0,0,0,0,#NULL!,4.9,0,8.9284,8.9284
914,3,258763.51,11,60.33,62.35,1,9.99,0.2,2,1.05,1,63.93,65.93,1,1,0,0,-1,1,0,0,0,0,#NULL!,1,8.67,0,8.9384,8.9384
914,3,258763.51,12,69.17,71.19,1,9.61,0.5,1,0.71,1,72.44,74.44,1,1,0,0,-1,1,0,0,0,0,#NULL!,1,7.75,0,8.9684,8.9684
914,3,258763.51,13,74.45,76.47,1,8.12,0.8,1,0.25,1,77.25,79.25,1,1,0,0,0,1,0,0,0,0,#NULL!,#NULL!,4.76,0,9.0784,9.0784
914,3,258763.51,14,79.27,81.29,1,7.99,1,2,1.01,1,82.82,84.82,1,1,0.01,0,1,1,0,0,0,0,#NULL!,#NULL!,5.1,0,5.9673,5.9673
914,3,258763.51,15,84.84,86.85,0,-1.86,0.8,2,1.06,1,88.45,90.45,1,1,0,0,-1,0,0,0,0,0,0,#NULL!,5.22,0,6.62,6.62
914,3,258763.51,20,118.17,120.19,1,10.11,0.5,2,1.01,1,121.74,123.74,1,1,0,0,-1,1,0,0,0,0,#NULL!,1,8.25,0,1,-1.6527
914,3,258763.51,21,126.8,128.82,1,9.75,0.2,2,1.05,1,130.4,132.4,1,1,0,0,-1,1,0,0,0,0,#NULL!,1,8.43,0,1,-2.01
914,3,258763.51,22,132.42,134.43,1,10.15,0.5,2,0.9,1,135.87,137.87,1,1,0,0,-1,1,0,0,0,0,#NULL!,1,8.29,0,0.9784,0.97844
914,3,258763.51,23,137.88,139.9,1,9.89,0.2,1,0.3,1,140.73,142.73,1,1,0,0,-1,1,0,0,0,0,#NULL!,1,8.57,0,8.6184,8.6184
914,3,258763.51,25,147.65,149.67,1,8.19,1,2,0.89,1,151.1,153.1,1,1,0,0,1,1,0,0,0,0,#NULL!,#NULL!,5.3,0,9.2884,9.2884
914,3,258763.51,29,171.89,173.9,1,9.8,0.5,2,0.92,1,175.35,177.35,1,1,0,0,-1,1,0,0,0,0,#NULL!,1,7.94,0,9.0684,9.0684
914,3,258763.51,30,177.37,179.39,1,10.1,0.2,2,1.06,1,180.99,182.99,1,1,0,0,-1,1,0,0,0,0,#NULL!,1,8.78,0,6.58,6.58
914,3,258763.51,31,185.77,187.79,1,10.25,0.5,1,0.63,1,188.96,190.96,1,1,0,0,-1,1,0,0,0,0,#NULL!,1,8.39,0,5.6173,5.6173
914,3,258763.51,32,190.97,192.99,1,8.15,1,2,1,1,194.52,196.52,1,1,0,0,1,1,0,0,0,0,#NULL!,#NULL!,5.26,0,1,-2.5827
914,3,258763.51,34,204.38,206.39,0,-1.15,0.8,2,0.69,1,207.63,209.63,1,1,0.01,0,-1,0,0,0,0,0,0,#NULL!,4.51,0,1,-2.87
914,3,258763.51,38,229.54,231.55,1,9.97,0.5,1,0.56,1,232.64,234.64,1,1,0,0,-1,1,0,0,0,0,#NULL!,1,8.11,0,1,-0.43162
914,3,258763.51,39,234.65,236.67,1,10.07,0.2,1,0.53,1,237.74,239.74,1,1,0,0,-1,1,0,0,0,0,#NULL!,1,8.75,0,0.8784,0.87844
914,3,258763.51,40,239.76,241.77,1,8.29,1,1,0.28,1,242.59,244.59,1,1,0,0,1,1,0,0,0,0,#NULL!,#NULL!,5.4,0,8.7884,8.7884
914,3,258763.51,41,244.61,246.62,1,7.96,0.8,1,0.34,1,247.49,249.49,1,1,0.01,0,1,1,0,0,0,0,#NULL!,#NULL!,4.6,0,9.2584,9.2584
914,3,258763.51,45,270.56,272.58,1,9.78,0.2,2,1.03,1,274.14,276.14,1,1,0,0,-1,1,0,0,0,0,#NULL!,1,8.46,0,6.72,6.72
914,3,258763.51,46,276.16,278.18,1,10.16,0.5,1,0.22,1,278.93,280.93,1,1,0,0,-1,1,0,0,0,0,#NULL!,1,8.3,0,6.5273,6.5273
914,3,258763.51,47,280.94,282.96,1,8.87,0.8,1,0.34,1,283.83,285.83,1,1,0,0,0,1,0,0,0,0,#NULL!,#NULL!,5.51,0,1,-2.42
914,3,258763.51,52,308.81,310.83,1,10.25,0.2,1,0.28,1,311.65,313.65,1,1,0,0,-1,1,0,0,0,0,#NULL!,1,8.93,0,1,-0.91274
914,3,258763.51,53,316.57,318.58,1,9.24,0.2,2,0.73,1,319.85,321.85,1,1,0,0,-1,1,0,0,0,0,#NULL!,1,7.92,0,0.5484,0.54838
914,3,258763.51,54,321.87,323.88,1,8.13,1,2,0.59,1,325,327,1,1,0,0,0,1,0,0,0,0,#NULL!,#NULL!,5.24,0,8.9684,8.9684
914,3,258763.51,55,327.02,329.03,1,8.08,0.8,2,0.93,1,330.5,332.5,1,1,0,0,1,1,0,0,0,0,#NULL!,#NULL!,4.72,0,8.9784,8.9784
